"subject","condition","phase","trial","selected_difficulty_1","selected_difficulty_2","selected_difficulty_3","selected_difficulty_4","rt_1","rt_2","rt_3","rt_4","avgD","minD","maxD"
24576,"fixed","untimed",0,1,2,3,4,3575.575,6369.525,2198.335,1750.77,0,0,0
24576,"fixed","untimed",1,1,2,3,4,3103.4,2574.065,1291.32,1428.05,0,0,0
24576,"fixed","untimed",2,1,2,3,4,1735.575,2071.7,1407.825,1720.315,0,0,0
24576,"fixed","untimed",3,1,2,3,4,1168.195,1443.86,1249.74,1281.525,0,0,0
24576,"fixed","untimed",4,1,2,3,4,1726.465,1758.91,1246.245,1818.045,0,0,0
24576,"fixed","untimed",5,1,2,3,4,1130.685,1360.67,1738.37,1257.01,0,0,0
24576,"fixed","untimed",6,1,2,3,4,923.96,1230.64,1105.255,1191.44,0,0,0
24576,"fixed","untimed",7,1,2,3,4,1264.685,1297.23,1185.625,1237.175,0,0,0
24576,"fixed","untimed",8,1,2,3,4,944.83,1125.485,1141.6,1300.495,0,0,0
24576,"fixed","untimed",9,1,2,3,4,683.45,1096.94,1072.005,1139.045,0,0,0
24576,"fixed","deadline",0,1,2,3,NA,1032.215,1391.965,1564.935,NA,0,0,0
24576,"fixed","deadline",1,1,2,3,NA,584.415,1508.97,1862.98,NA,0,0,0
24576,"fixed","deadline",2,1,2,3,4,450.6,1205.07,1470.63,1288.805,0,0,0
24576,"fixed","deadline",3,1,4,2,NA,830.26,1309.705,1415.79,NA,2,2,2
24576,"fixed","deadline",4,1,4,3,2,687.185,921.53,979.815,838.545,3,3,3
24576,"fixed","deadline",5,1,2,3,4,835.41,618.735,683.055,670.785,0,0,0
24576,"fixed","deadline",6,1,2,3,4,1162.4,720.58,585.845,765.02,0,0,0
24576,"fixed","deadline",7,1,2,3,4,693.16,805.185,616.605,727.155,0,0,0
24576,"fixed","deadline",8,1,2,3,NA,736.46,1477.025,813.795,NA,0,0,0
24576,"fixed","deadline",9,1,2,3,4,633.445,795.595,576.435,703.645,0,0,0
24576,"fixed","deadline",10,2,1,3,4,1063.485,714.41,647.695,804.43,1,1,1
24576,"fixed","deadline",11,2,3,4,1,1026.395,565.36,489.365,637.55,3,3,3
24576,"fixed","deadline",12,2,3,4,1,602.365,699.05,617.82,587.365,3,3,3
24576,"fixed","deadline",13,1,2,3,4,671.935,1166,1415.585,1244.64,0,0,0
24576,"fixed","deadline",14,4,1,2,3,600.725,1359.84,1257.265,1354.985,3,3,3
24576,"fixed","deadline",15,1,4,3,2,1208.77,1175.115,1141.415,1361.475,3,3,3
24576,"fixed","deadline",16,1,4,3,2,633.105,1143.2,1285.785,1317.97,3,3,3
24576,"fixed","deadline",17,1,2,3,4,727.165,1183.52,1121.185,1504.085,0,0,0
24576,"fixed","deadline",18,4,3,2,1,858.57,1286.415,1105.07,1212.55,6,6,6
24576,"fixed","deadline",19,3,4,1,2,626.27,1218.24,1114.275,1387.585,4,4,4
24576,"fixed","deadline",20,2,3,4,1,468.275,1147.24,1197.255,1260.25,3,3,3
24576,"fixed","deadline",21,1,2,3,4,392.395,1420.005,1234.69,1428.565,0,0,0
24576,"fixed","deadline",22,4,1,2,3,382.4,1205.495,1246.345,1276.145,3,3,3
24576,"fixed","deadline",23,4,3,2,1,446.26,1171.115,1151.35,1410.13,6,6,6
24576,"fixed","deadline",24,1,2,3,4,398.78,1276.335,1402.57,1225.07,0,0,0
24576,"fixed","deadline",25,1,2,3,4,460.12,1068.465,1159.795,1310.175,0,0,0
24576,"fixed","deadline",26,1,2,3,4,479.8349999,1112.33,1182.09,1164.335,0,0,0
24576,"fixed","deadline",27,1,2,3,4,423.21,1102.065,1375.985,1122.42,0,0,0
24576,"fixed","deadline",28,1,2,3,NA,530.505,1123.835,2130.66,NA,0,0,0
24576,"fixed","deadline",29,1,2,3,NA,422.06,1212.68,1186.605,NA,0,0,0
24611,"fixed","untimed",0,1,2,3,4,3978.93,2168.14,1537.76,1153.455,0,0,0
24611,"fixed","untimed",1,1,3,2,4,995.62,774.27,1681.825,739.355,1,1,1
24611,"fixed","untimed",2,1,2,4,3,616.285,719.335,906.285,635.535,1,1,1
24611,"fixed","untimed",3,1,2,4,3,561.635,587.09,660.515,860.595,1,1,1
24611,"fixed","untimed",4,1,2,3,4,564.385,541.945,895.77,609.615,0,0,0
24611,"fixed","untimed",5,4,3,2,1,965.245,1062.955,609.185,756.145,6,6,6
24611,"fixed","untimed",6,1,2,4,3,769.74,681.36,696.565,619.005,1,1,1
24611,"fixed","untimed",7,1,2,4,3,1055.7,554.58,572.34,637.415,1,1,1
24611,"fixed","untimed",8,1,2,4,3,628.38,454.11,487.755,528.075,1,1,1
24611,"fixed","untimed",9,1,2,4,3,470.995,508.715,499.675,497.65,1,1,1
24611,"fixed","deadline",0,1,2,3,4,1110.995,737.535,898.07,490.825,0,0,0
24611,"fixed","deadline",1,1,2,4,NA,530.69,472.11,486.56,NA,1,1,1
24611,"fixed","deadline",2,1,2,3,4,932.875,480.56,1108.825,479.925,0,0,0
24611,"fixed","deadline",3,1,2,3,4,555.005,488.735,527.86,521.27,0,0,0
24611,"fixed","deadline",4,1,2,3,4,543.725,474.685,505.575,489.4,0,0,0
24611,"fixed","deadline",5,1,2,3,NA,682.205,978.555,577.14,NA,0,0,0
24611,"fixed","deadline",6,1,2,3,4,497.125,478.07,603.45,528.255,0,0,0
24611,"fixed","deadline",7,1,2,3,4,409.12,489.565,603.115,971.13,0,0,0
24611,"fixed","deadline",8,1,2,3,4,579.505,464.96,646.03,523.7,0,0,0
24611,"fixed","deadline",9,1,2,3,4,661.015,567.595,577.76,1086.925,0,0,0
24611,"fixed","deadline",10,1,3,2,4,563.5,726.72,579.855,535.555,1,1,1
24611,"fixed","deadline",11,1,2,3,4,803.785,673.97,502.95,425.815,0,0,0
24611,"fixed","deadline",12,1,2,3,4,427,590.625,510.77,487.21,0,0,0
24611,"fixed","deadline",13,1,2,3,4,457.905,493.41,477.12,445.765,0,0,0
24611,"fixed","deadline",14,1,2,3,4,537.935,469.82,514.085,567.425,0,0,0
24611,"fixed","deadline",15,1,2,3,4,522.005,439.945,495.655,440.21,0,0,0
24611,"fixed","deadline",16,1,2,3,4,471.515,462.525,813.085,396.095,0,0,0
24611,"fixed","deadline",17,1,2,3,4,410.01,547.585,471.385,777.585,0,0,0
24611,"fixed","deadline",18,1,2,3,4,745.675,456.07,448.085,466.865,0,0,0
24611,"fixed","deadline",19,1,2,3,4,539.09,439.055,533.095,438.825,0,0,0
24611,"fixed","deadline",20,1,2,3,4,392.605,428.775,523.36,593.435,0,0,0
24611,"fixed","deadline",21,1,2,3,4,626.01,436.56,460.54,443.915,0,0,0
24611,"fixed","deadline",22,1,3,2,4,575.765,527.12,528.18,837.345,1,1,1
24611,"fixed","deadline",23,1,2,3,4,657.78,430.34,493.595,445.26,0,0,0
24611,"fixed","deadline",24,1,2,3,4,384.79,467.51,573.455,435.145,0,0,0
24611,"fixed","deadline",25,1,2,3,4,474.655,436.98,505.17,498.03,0,0,0
24611,"fixed","deadline",26,1,2,3,4,344.36,443.255,527.78,569.935,0,0,0
24611,"fixed","deadline",27,1,2,3,4,416.595,401.515,457.035,482.885,0,0,0
24611,"fixed","deadline",28,1,2,3,4,379.455,404.29,494.095,460.545,0,0,0
24611,"fixed","deadline",29,1,2,3,4,369.1,441.895,508,489.085,0,0,0
24663,"fixed","untimed",0,1,3,4,2,5400.325,3574.85,2607.495,2585.24,2,2,2
24663,"fixed","untimed",1,2,4,3,1,866.3899999,1454.465,1922.515,2533.475,4,4,4
24663,"fixed","untimed",2,4,2,1,3,2281.405,925.91,1359.225,678.1049999,4,4,4
24663,"fixed","untimed",3,3,4,2,1,1092.49,988.715,663.2049999,1308.135,5,5,5
24663,"fixed","untimed",4,4,2,1,3,2445.62,2112.69,3356.98,4197.085,4,4,4
24663,"fixed","untimed",5,3,4,2,1,1838.285,1238.835,3371.71,1715.08,5,5,5
24663,"fixed","untimed",6,3,4,2,1,1209.74,1454.07,1974.43,1422.595,5,5,5
24663,"fixed","untimed",7,1,3,4,2,634.8949999,970.8699998,674.1450001,1217.73,2,2,2
24663,"fixed","untimed",8,3,4,2,1,1055.41,684.2399999,1183.885,1333.465,5,5,5
24663,"fixed","untimed",9,4,2,1,3,936.55,1999.91,1382.765,656.8450001,4,4,4
24663,"fixed","deadline",0,3,4,2,1,993.175,1014.155,591.5049999,553.9850001,5,5,5
24663,"fixed","deadline",1,4,2,1,3,864.15,527,599.4800001,458.0099999,4,4,4
24663,"fixed","deadline",2,3,4,2,NA,685.4700001,846.135,1038.88,NA,5,5,5
24663,"fixed","deadline",3,1,3,4,NA,1273.8,537.8800002,754.7499998,NA,2,2,2
24663,"fixed","deadline",4,3,4,2,NA,645.8099999,565.34,1096.88,NA,5,5,5
24663,"fixed","deadline",5,1,2,4,3,1063.73,703.7850001,536.815,776.4950001,1,1,1
24663,"fixed","deadline",6,3,4,2,1,541.25,499.08,783.1000001,840.9750001,5,5,5
24663,"fixed","deadline",7,3,4,2,1,658.4650001,921.325,709.0650001,520.1099999,5,5,5
24663,"fixed","deadline",8,3,4,2,1,571.7999998,581.675,543.265,644.8300001,5,5,5
24663,"fixed","deadline",9,1,2,4,3,777.7199999,746.755,540.4749999,546.045,1,1,1
24663,"fixed","deadline",10,1,2,4,3,589.925,504.6600001,554.33,589.3999999,1,1,1
24663,"fixed","deadline",11,3,4,NA,NA,890.4800001,551.4499999,NA,NA,4.5,4,5
24663,"fixed","deadline",12,1,3,4,2,1477.43,754.34,524.4399998,640.5749999,2,2,2
24663,"fixed","deadline",13,1,2,4,3,833.165,761.1450001,558.37,638.9900001,1,1,1
24663,"fixed","deadline",14,1,2,4,NA,783.545,528.1499999,562.4799998,NA,1,1,1
24663,"fixed","deadline",15,1,2,4,3,1311.365,676.1099999,542.7600001,546.0399999,1,1,1
24663,"fixed","deadline",16,1,2,4,3,557.155,521.8999998,410.4599999,731.8599999,1,1,1
24663,"fixed","deadline",17,1,2,4,3,970.675,605.335,504.375,574.4550002,1,1,1
24663,"fixed","deadline",18,1,2,4,NA,683.6650001,553.6500001,501.44,NA,1,1,1
24663,"fixed","deadline",19,1,2,4,3,745.4199998,517.9899998,429.43,594.1099999,1,1,1
24663,"fixed","deadline",20,1,2,4,3,699.4749999,438.0700001,346.3900001,520.2349999,1,1,1
24663,"fixed","deadline",21,1,2,4,3,706.645,578.005,490.0549999,896.31,1,1,1
24663,"fixed","deadline",22,1,2,4,3,863.1849999,414.9100001,374.7449999,506.4999999,1,1,1
24663,"fixed","deadline",23,1,2,4,3,534.4750001,283.5250001,365.4450001,508.28,1,1,1
24663,"fixed","deadline",24,1,2,NA,NA,1117.655,660.2449999,NA,NA,0.5,0,1
24663,"fixed","deadline",25,1,2,4,3,537.3750001,350.475,382.1400001,522.8949999,1,1,1
24663,"fixed","deadline",26,1,2,4,NA,452.355,353.08,444.16,NA,1,1,1
24663,"fixed","deadline",27,1,2,4,3,1204.69,579.9299998,413.1400001,450.4549999,1,1,1
24663,"fixed","deadline",28,1,2,4,3,1105.68,685.9499998,234.6700002,664.05,1,1,1
24663,"fixed","deadline",29,1,2,4,3,437.955,423.0250001,353.865,440.5550002,1,1,1
24789,"fixed","untimed",0,3,2,1,4,2527.835,1941.895,1585.675,1306.47,3,3,3
24789,"fixed","untimed",1,4,1,2,3,1281.22,1666.7,1016.165,946.4,3,3,3
24789,"fixed","untimed",2,3,2,1,4,1262.6,910.875,733.885,699.945,3,3,3
24789,"fixed","untimed",3,4,3,2,1,712.335,926.13,855.04,721.47,6,6,6
24789,"fixed","untimed",4,1,4,3,2,494.705,894.185,724.28,734.86,3,3,3
24789,"fixed","untimed",5,2,3,4,1,1793.86,791.795,702.865,952.6,3,3,3
24789,"fixed","untimed",6,1,2,3,4,517.39,893.74,921.535,790.315,0,0,0
24789,"fixed","untimed",7,4,3,2,1,1160.455,1231.535,890.385,688.935,6,6,6
24789,"fixed","untimed",8,1,2,4,3,847.9,790.8,770.985,815.72,1,1,1
24789,"fixed","untimed",9,3,4,2,1,702.485,856.5000001,841.37,796.665,5,5,5
24789,"fixed","deadline",0,4,1,NA,NA,3570.3,801.2249999,NA,NA,3.5,3,4
24789,"fixed","deadline",1,1,2,3,4,1181.76,573.89,691.055,690.145,0,0,0
24789,"fixed","deadline",2,1,2,3,4,1759.145,699.04,583.81,703.425,0,0,0
24789,"fixed","deadline",3,1,2,3,NA,1075.975,794.02,579.91,NA,0,0,0
24789,"fixed","deadline",4,1,2,3,4,1160.78,587.46,578.245,618.95,0,0,0
24789,"fixed","deadline",5,1,2,3,NA,1150.46,543.72,569.105,NA,0,0,0
24789,"fixed","deadline",6,1,2,3,4,864.775,544.78,475.905,1039.705,0,0,0
24789,"fixed","deadline",7,1,2,3,4,645.985,604.64,454.365,605.495,0,0,0
24789,"fixed","deadline",8,1,2,3,4,631.61,495.71,434.64,1192.05,0,0,0
24789,"fixed","deadline",9,1,2,3,4,598.3,1024.91,553.865,584.765,0,0,0
24789,"fixed","deadline",10,1,2,3,4,967.595,539.27,468.655,585.88,0,0,0
24789,"fixed","deadline",11,1,2,3,4,526.27,579.145,469.41,478.545,0,0,0
24789,"fixed","deadline",12,1,2,3,4,671.42,584.105,498.08,622.96,0,0,0
24789,"fixed","deadline",13,1,2,3,4,554.805,572.655,480.2249999,521.14,0,0,0
24789,"fixed","deadline",14,1,2,3,4,810.31,583.975,522.59,643.41,0,0,0
24789,"fixed","deadline",15,1,2,3,4,393.04,659.285,918.43,1704.325,0,0,0
24789,"fixed","deadline",16,4,3,2,1,644.1,571.25,695.43,617.125,6,6,6
24789,"fixed","deadline",17,1,2,3,NA,577.225,541.915,682.185,NA,0,0,0
24789,"fixed","deadline",18,1,2,3,4,511.73,934.66,503.47,516.625,0,0,0
24789,"fixed","deadline",19,1,2,3,4,438.415,504.745,445.57,501.75,0,0,0
24789,"fixed","deadline",20,4,1,2,NA,634.265,1142.97,611.625,NA,3,3,3
24789,"fixed","deadline",21,1,4,2,3,629.735,523.345,666.385,521.4800001,2,2,2
24789,"fixed","deadline",22,1,4,3,2,500.68,504.97,506.42,602.62,3,3,3
24789,"fixed","deadline",23,1,4,NA,NA,359.03,519.82,NA,NA,2.5,2,3
24789,"fixed","deadline",24,1,4,3,NA,876.465,535.86,841.705,NA,3,3,3
24789,"fixed","deadline",25,1,2,3,4,582.465,563.48,485.835,685.74,0,0,0
24789,"fixed","deadline",26,1,2,3,4,431.69,545.845,554.615,507.14,0,0,0
24789,"fixed","deadline",27,1,2,3,4,509.41,514.325,449.22,568.14,0,0,0
24789,"fixed","deadline",28,1,2,3,4,323.29,518.83,760.25,520.66,0,0,0
24789,"fixed","deadline",29,1,2,3,4,1003.9,476.51,419.935,627.95,0,0,0
24796,"fixed","untimed",0,1,2,3,4,3389.36,2080.99,1314.31,11314.99,0,0,0
24796,"fixed","untimed",1,1,2,3,4,597.66,2632.435,1094.1,1122.945,0,0,0
24796,"fixed","untimed",2,1,4,3,2,637.035,1506.995,1209.715,1562.24,3,3,3
24796,"fixed","untimed",3,1,2,3,4,917.075,1546.11,823.215,1699.125,0,0,0
24796,"fixed","untimed",4,1,2,4,3,848.635,1006.43,788.41,803.51,1,1,1
24796,"fixed","untimed",5,1,2,4,3,818.03,1199.955,833.725,1889.29,1,1,1
24796,"fixed","untimed",6,2,1,4,3,536.39,1175.35,1552.875,1156.22,2,2,2
24796,"fixed","untimed",7,2,1,4,3,854.465,1622.53,2350.705,2286.225,2,2,2
24796,"fixed","untimed",8,1,4,3,2,709.345,1016.8,1247.3,680.825,3,3,3
24796,"fixed","untimed",9,1,2,3,4,608.34,591.43,686.45,658.895,0,0,0
24796,"fixed","deadline",0,1,2,3,4,686.485,759.395,942.78,585.985,0,0,0
24796,"fixed","deadline",1,1,4,3,2,383.115,1345.685,985.755,679.785,3,3,3
24796,"fixed","deadline",2,4,1,2,NA,691.61,877.325,700.155,NA,3,3,3
24796,"fixed","deadline",3,1,2,3,4,547.905,701.66,855.265,667.94,0,0,0
24796,"fixed","deadline",4,1,2,3,4,377.265,719.48,731.17,624.515,0,0,0
24796,"fixed","deadline",5,1,2,3,4,520.02,710.48,614.54,645.965,0,0,0
24796,"fixed","deadline",6,1,2,3,4,562.705,663.965,584.635,672.31,0,0,0
24796,"fixed","deadline",7,1,2,3,4,679.42,663.655,654.79,584.775,0,0,0
24796,"fixed","deadline",8,1,2,3,NA,564.54,715.08,737.87,NA,0,0,0
24796,"fixed","deadline",9,1,2,3,4,765.11,764.67,698.2,608.91,0,0,0
24796,"fixed","deadline",10,1,2,3,4,504.855,608.015,759.535,592.96,0,0,0
24796,"fixed","deadline",11,1,2,3,4,406.565,587.03,644.025,579.5,0,0,0
24796,"fixed","deadline",12,1,2,3,4,423.86,713.535,714.575,670.58,0,0,0
24796,"fixed","deadline",13,1,2,3,4,344.05,617.795,562.86,631.355,0,0,0
24796,"fixed","deadline",14,1,2,3,NA,537.56,589.85,582.035,NA,0,0,0
24796,"fixed","deadline",15,1,2,3,4,367.935,997.605,665.35,835.125,0,0,0
24796,"fixed","deadline",16,1,2,3,4,574.415,550.195,549.15,706.8,0,0,0
24796,"fixed","deadline",17,1,2,3,4,455.77,811.075,835.455,707.73,0,0,0
24796,"fixed","deadline",18,1,2,3,4,683.81,690.795,680.135,666.34,0,0,0
24796,"fixed","deadline",19,1,2,3,4,520.445,664.41,652.51,645.01,0,0,0
24796,"fixed","deadline",20,1,2,3,4,494.98,619.49,982.835,845.805,0,0,0
24796,"fixed","deadline",21,1,2,NA,NA,602.19,739.875,NA,NA,0.5,0,1
24796,"fixed","deadline",22,1,2,3,NA,687.92,856.93,718.91,NA,0,0,0
24796,"fixed","deadline",23,4,1,2,NA,761.43,1414,1667.94,NA,3,3,3
24796,"fixed","deadline",24,1,2,3,NA,910.275,941.01,861.795,NA,0,0,0
24796,"fixed","deadline",25,1,2,3,4,787.69,593.52,715.915,648.525,0,0,0
24796,"fixed","deadline",26,1,2,3,4,623.735,556.35,869.5,822.885,0,0,0
24796,"fixed","deadline",27,1,2,3,4,730.36,752.72,837.165,673.28,0,0,0
24796,"fixed","deadline",28,1,2,3,4,612.005,611.575,659.725,664.835,0,0,0
24796,"fixed","deadline",29,1,2,3,4,759.69,654.165,735.55,681.555,0,0,0
24808,"fixed","untimed",0,1,4,2,3,3786.335,2752.745,1607.13,1425.845,2,2,2
24808,"fixed","untimed",1,2,4,3,1,897.175,1308.535,4341.155,2530.305,4,4,4
24808,"fixed","untimed",2,2,4,1,3,1328.765,1308.775,1275.115,1284.295,3,3,3
24808,"fixed","untimed",3,3,2,4,1,1026.555,1416.145,1139.91,1285.85,4,4,4
24808,"fixed","untimed",4,1,4,3,2,395.315,2670.97,1200.21,1229.42,3,3,3
24808,"fixed","untimed",5,2,4,1,3,678.46,1187.445,1127.47,1379.11,3,3,3
24808,"fixed","untimed",6,3,2,4,1,430.47,998.58,1114.105,1094.47,4,4,4
24808,"fixed","untimed",7,1,3,2,4,617.58,1291.93,1163.485,1033.775,1,1,1
24808,"fixed","untimed",8,1,3,2,4,658.42,1236.38,1251.32,1120.385,1,1,1
24808,"fixed","untimed",9,1,3,2,4,477.755,1104.63,1193.13,1447.22,1,1,1
24808,"fixed","deadline",0,1,3,2,NA,1619.135,1081.995,1240.505,NA,1,1,1
24808,"fixed","deadline",1,1,3,NA,NA,3395.245,1164.66,NA,NA,1.5,1,2
24808,"fixed","deadline",2,1,3,2,NA,721.015,1074.865,986.615,NA,1,1,1
24808,"fixed","deadline",3,1,3,2,4,436.875,1237.34,1055.51,1250.25,1,1,1
24808,"fixed","deadline",4,1,3,2,4,1014.875,1118.33,1110.825,868.815,1,1,1
24808,"fixed","deadline",5,1,3,2,4,374.06,1235.915,824.49,806.455,1,1,1
24808,"fixed","deadline",6,1,3,2,4,463.905,1027.34,1009.55,1205.325,1,1,1
24808,"fixed","deadline",7,1,3,2,4,388.78,764.165,730.99,772.08,1,1,1
24808,"fixed","deadline",8,1,3,2,4,390.55,1215.1,857.865,1320.355,1,1,1
24808,"fixed","deadline",9,1,3,2,4,410.785,666.07,806.04,744.865,1,1,1
24808,"fixed","deadline",10,1,3,2,4,334.84,969.005,694.865,762.74,1,1,1
24808,"fixed","deadline",11,1,3,2,NA,419.115,1062.63,948.705,NA,1,1,1
24808,"fixed","deadline",12,1,3,2,4,390.83,1097.515,928.35,766.335,1,1,1
24808,"fixed","deadline",13,1,3,2,NA,1092.935,1094.035,1163.09,NA,1,1,1
24808,"fixed","deadline",14,1,3,2,4,427.235,1216.585,813.51,736.915,1,1,1
24808,"fixed","deadline",15,1,3,2,4,531.765,1038.765,1713.75,795.56,1,1,1
24808,"fixed","deadline",16,1,3,2,4,461.31,812.8,730.295,701.015,1,1,1
24808,"fixed","deadline",17,1,3,2,4,429.76,722.895,697.67,1730.99,1,1,1
24808,"fixed","deadline",18,1,3,2,4,402.53,758.9,701.335,1059.655,1,1,1
24808,"fixed","deadline",19,1,3,NA,NA,709.175,690.625,NA,NA,1.5,1,2
24808,"fixed","deadline",20,1,3,2,4,529.155,697.64,749.585,733.21,1,1,1
24808,"fixed","deadline",21,1,3,2,4,338.71,678.96,1021.16,647.535,1,1,1
24808,"fixed","deadline",22,1,3,2,4,357.285,702.87,627.125,618.665,1,1,1
24808,"fixed","deadline",23,1,3,2,4,369.955,647.685,980.38,1063.825,1,1,1
24808,"fixed","deadline",24,1,3,2,4,331.89,579.365,598.825,634.49,1,1,1
24808,"fixed","deadline",25,1,3,2,4,378.735,661.66,519.88,642.31,1,1,1
24808,"fixed","deadline",26,1,3,2,4,730.83,1059.02,777.165,782.13,1,1,1
24808,"fixed","deadline",27,1,3,2,4,479.775,586.105,1213.51,702.095,1,1,1
24808,"fixed","deadline",28,1,3,NA,NA,511.02,656.52,NA,NA,1.5,1,2
24808,"fixed","deadline",29,1,3,2,4,809.245,637.49,595.055,660.92,1,1,1
24809,"fixed","untimed",0,1,2,3,4,3660.045,3238.695,1380.475,1321.195,0,0,0
24809,"fixed","untimed",1,1,2,3,4,1232.86,5551.16,1697.72,1546.425,0,0,0
24809,"fixed","untimed",2,1,2,3,4,1209.41,1157.74,1019.24,910.975,0,0,0
24809,"fixed","untimed",3,1,2,3,4,980.675,775.155,826.98,764.275,0,0,0
24809,"fixed","untimed",4,1,2,3,4,588.105,728.14,745.305,784.24,0,0,0
24809,"fixed","untimed",5,1,2,3,4,2491.4,825.135,851.28,864.98,0,0,0
24809,"fixed","untimed",6,1,2,3,4,509.35,785.22,735.9,667.51,0,0,0
24809,"fixed","untimed",7,1,2,3,4,452.765,830.335,823.955,828.605,0,0,0
24809,"fixed","untimed",8,1,2,3,4,815.155,742.47,771.355,1053.565,0,0,0
24809,"fixed","untimed",9,1,2,3,4,383.945,700.455,636.69,631.395,0,0,0
24809,"fixed","deadline",0,1,2,3,NA,1252.91,1254.465,832.96,NA,0,0,0
24809,"fixed","deadline",1,1,2,3,4,597.64,626.76,610.17,644.355,0,0,0
24809,"fixed","deadline",2,1,2,3,4,607.035,640.115,604.595,593.505,0,0,0
24809,"fixed","deadline",3,1,2,3,4,566.58,597.455,620.505,601.8,0,0,0
24809,"fixed","deadline",4,1,2,3,4,564.75,720.49,910.7,600.11,0,0,0
24809,"fixed","deadline",5,1,2,3,4,397.235,947.895,603.605,798.825,0,0,0
24809,"fixed","deadline",6,1,2,3,NA,645.83,589.945,892.58,NA,0,0,0
24809,"fixed","deadline",7,1,2,3,4,762.24,598.615,575.205,988.635,0,0,0
24809,"fixed","deadline",8,1,2,3,4,419.325,608.925,646.105,621.025,0,0,0
24809,"fixed","deadline",9,1,2,3,NA,669.285,565.415,669.65,NA,0,0,0
24809,"fixed","deadline",10,1,2,3,4,429.96,721.935,524.06,721.2,0,0,0
24809,"fixed","deadline",11,1,2,3,4,472.9,552.59,653.305,683.615,0,0,0
24809,"fixed","deadline",12,1,2,3,4,586.365,549.7,575.195,660.585,0,0,0
24809,"fixed","deadline",13,1,2,3,4,415.54,627.215,749.02,673.085,0,0,0
24809,"fixed","deadline",14,1,2,3,4,691.615,983.18,566.01,851.51,0,0,0
24809,"fixed","deadline",15,1,2,3,4,920.675,586.08,724.81,639.345,0,0,0
24809,"fixed","deadline",16,1,2,3,4,613.895,575.41,638.195,643.14,0,0,0
24809,"fixed","deadline",17,1,2,3,4,591.1,580.085,919.125,903.08,0,0,0
24809,"fixed","deadline",18,1,2,3,4,411.045,575.085,583.415,660.515,0,0,0
24809,"fixed","deadline",19,1,2,3,4,474.345,608.72,573.68,634.49,0,0,0
24809,"fixed","deadline",20,1,2,3,4,415.675,672.245,586.04,651.75,0,0,0
24809,"fixed","deadline",21,4,1,2,3,882.865,735.12,596.065,571.1,3,3,3
24809,"fixed","deadline",22,4,1,2,3,358.035,620.975,580.195,653.23,3,3,3
24809,"fixed","deadline",23,4,1,2,3,441.235,638.87,613.915,706.41,3,3,3
24809,"fixed","deadline",24,4,1,2,3,361.685,652.405,708.29,571.885,3,3,3
24809,"fixed","deadline",25,4,1,2,3,461.7,876.955,638.415,589.3,3,3,3
24809,"fixed","deadline",26,4,1,2,3,526.125,1350.84,545.045,562.96,3,3,3
24809,"fixed","deadline",27,4,1,2,3,353.81,709.27,596.13,563.975,3,3,3
24809,"fixed","deadline",28,4,1,2,3,354.215,524.43,575.89,626.04,3,3,3
24809,"fixed","deadline",29,4,1,2,3,355.225,574.22,511.55,593.865,3,3,3
24830,"fixed","untimed",0,1,2,3,4,4855.45,2427.455,2375.715,1620.025,0,0,0
24830,"fixed","untimed",1,1,2,3,4,2547.7,1946.96,2049.115,1570.665,0,0,0
24830,"fixed","untimed",2,1,2,3,4,1316.01,819.6149999,1135.12,744.3500001,0,0,0
24830,"fixed","untimed",3,1,2,3,4,1513.505,930.7250001,853.2100001,932.4100001,0,0,0
24830,"fixed","untimed",4,1,2,3,4,1196.545,874.3499999,741.8,662.215,0,0,0
24830,"fixed","untimed",5,1,2,3,4,1051.755,898.5050002,695.5500001,606.9099999,0,0,0
24830,"fixed","untimed",6,1,2,3,4,974.5700001,661.0650001,856.9800002,673.3199998,0,0,0
24830,"fixed","untimed",7,1,2,3,4,830.9149998,543.1650002,709.8449999,536.8950001,0,0,0
24830,"fixed","untimed",8,1,2,3,4,835.555,485.81,639.5700001,506.58,0,0,0
24830,"fixed","untimed",9,1,2,3,4,811.1700001,563.6850002,875.4,496.425,0,0,0
24830,"fixed","deadline",0,1,2,3,NA,1080.6,1072.825,480.4750001,NA,0,0,0
24830,"fixed","deadline",1,1,2,3,NA,825.6000001,622.7800001,530.3500001,NA,0,0,0
24830,"fixed","deadline",2,1,2,3,4,454.3649999,393.4549999,353.7049999,652.1949999,0,0,0
24830,"fixed","deadline",3,1,2,3,4,601.8299998,486.725,626.6299998,702.08,0,0,0
24830,"fixed","deadline",4,1,2,3,4,435.9200001,500.92,491.0050002,600.8600001,0,0,0
24830,"fixed","deadline",5,1,2,3,4,350.9,396.6300001,460.0300002,504.7899999,0,0,0
24830,"fixed","deadline",6,1,2,3,4,398.94,376.2699999,406.765,464.6749999,0,0,0
24830,"fixed","deadline",7,1,2,3,4,357.9800001,407.6350001,318.43,406.9149999,0,0,0
24830,"fixed","deadline",8,1,2,3,4,309.4850001,329.14,342.6650001,399.22,0,0,0
24830,"fixed","deadline",9,1,2,3,4,335.4300002,389.3250001,642.2250001,415.5250001,0,0,0
24830,"fixed","deadline",10,1,2,3,4,434.9100001,345.9999999,356.2299998,470.8149999,0,0,0
24830,"fixed","deadline",11,1,2,3,4,375.3,418.5600001,376.6349999,401.815,0,0,0
24830,"fixed","deadline",12,1,2,3,4,301.1149999,283.3700001,314.9250001,312.2950001,0,0,0
24830,"fixed","deadline",13,1,2,3,4,384.265,273.4650001,309.135,289.325,0,0,0
24830,"fixed","deadline",14,1,2,3,4,308.9650001,302.655,332.1400001,300.6850001,0,0,0
24830,"fixed","deadline",15,1,2,3,4,327.115,302.72,326.2450001,324.89,0,0,0
24830,"fixed","deadline",16,1,2,3,4,258.225,333.2600002,353.7250001,332.375,0,0,0
24830,"fixed","deadline",17,1,2,3,4,314.5650001,313.1350002,319.9999998,318.6550001,0,0,0
24830,"fixed","deadline",18,1,2,3,4,304.9950001,315.2299998,325.9700001,305.0249999,0,0,0
24830,"fixed","deadline",19,1,2,3,4,299.8499998,281.285,312.6999999,282.0050002,0,0,0
24830,"fixed","deadline",20,1,2,3,4,304.18,298.775,279.175,264.765,0,0,0
24830,"fixed","deadline",21,1,2,3,4,762.8250001,264.2600001,265.2699999,240.64,0,0,0
24830,"fixed","deadline",22,1,2,3,4,374.8399999,281.715,275.69,286.1250001,0,0,0
24830,"fixed","deadline",23,1,2,3,4,358.9649999,293.175,287.5000001,269.3,0,0,0
24830,"fixed","deadline",24,1,2,3,4,421.7900001,292.5150001,276.2549999,286.2499999,0,0,0
24830,"fixed","deadline",25,1,2,3,4,393.86,260.9700002,296.75,277.5399999,0,0,0
24830,"fixed","deadline",26,1,2,3,4,293.5850001,274.855,291.1,323.51,0,0,0
24830,"fixed","deadline",27,1,2,3,4,404.7900001,296.6500001,273.1549998,293.2150001,0,0,0
24830,"fixed","deadline",28,1,2,3,4,409.2900001,263.735,286.1500001,275.3949999,0,0,0
24830,"fixed","deadline",29,1,2,3,4,331.2200001,262.015,253.7500001,281.225,0,0,0
24846,"fixed","untimed",0,1,3,4,2,2091.575,1917.31,3992.29,1776.445,2,2,2
24846,"fixed","untimed",1,1,3,4,2,944.485,1146.905,1630.865,976.015,2,2,2
24846,"fixed","untimed",2,1,2,4,3,730.7,775.275,955.875,1045.89,1,1,1
24846,"fixed","untimed",3,1,2,4,3,786.83,1090.54,1158.46,1334.45,1,1,1
24846,"fixed","untimed",4,1,2,3,4,1830.795,1424.38,1392.045,842.2150001,0,0,0
24846,"fixed","untimed",5,1,2,4,3,795.67,821,775.5400001,738.7799999,1,1,1
24846,"fixed","untimed",6,1,2,4,3,811.8299999,741.975,674.8149999,638.185,1,1,1
24846,"fixed","untimed",7,1,2,4,3,863.385,1041.41,933.585,940.5349999,1,1,1
24846,"fixed","untimed",8,1,2,4,3,663.19,737.48,1097.775,670.6450001,1,1,1
24846,"fixed","untimed",9,1,2,4,3,870.885,717.8,875.77,640.09,1,1,1
24846,"fixed","deadline",0,NA,NA,NA,NA,NA,NA,NA,NA,3,0,6
24846,"fixed","deadline",1,1,2,4,3,662.275,849.47,841.965,739.5200001,1,1,1
24846,"fixed","deadline",2,1,2,4,3,618.275,696.825,808.14,718.9399999,1,1,1
24846,"fixed","deadline",3,1,2,4,3,526.6100001,762.9549999,718.365,606.8150001,1,1,1
24846,"fixed","deadline",4,1,2,4,3,786.1599999,763.9350001,764.27,572.425,1,1,1
24846,"fixed","deadline",5,1,2,4,3,483.24,686.1650001,755.0499999,583.175,1,1,1
24846,"fixed","deadline",6,1,2,4,3,820.485,759.94,740.5999999,685.45,1,1,1
24846,"fixed","deadline",7,1,2,4,3,505.765,692.515,820.52,715.89,1,1,1
24846,"fixed","deadline",8,1,2,4,NA,525.61,951.245,1930.49,NA,1,1,1
24846,"fixed","deadline",9,1,2,3,4,978.1149999,606.9649999,638.445,910.605,0,0,0
24846,"fixed","deadline",10,1,2,NA,NA,717.18,831.9550001,NA,NA,0.5,0,1
24846,"fixed","deadline",11,1,2,4,3,692.6599999,686.0250001,629.4750001,595.8149999,1,1,1
24846,"fixed","deadline",12,1,2,4,3,470.8799999,584.17,662.385,605.2,1,1,1
24846,"fixed","deadline",13,1,2,4,3,489.225,798.065,876.93,1109.47,1,1,1
24846,"fixed","deadline",14,1,2,4,3,472.455,614.7949999,582.895,696.0900001,1,1,1
24846,"fixed","deadline",15,1,2,4,3,527.8299999,1751.675,977.815,784.38,1,1,1
24846,"fixed","deadline",16,1,2,4,3,489.9449999,684.595,673.975,626.485,1,1,1
24846,"fixed","deadline",17,1,2,4,3,392.875,686,985.98,572.265,1,1,1
24846,"fixed","deadline",18,1,2,4,3,550.585,741.79,852.48,604.895,1,1,1
24846,"fixed","deadline",19,1,2,4,3,483.415,695.9650001,671.805,601.545,1,1,1
24846,"fixed","deadline",20,1,2,4,3,584.045,697.34,921.13,595.72,1,1,1
24846,"fixed","deadline",21,1,2,4,3,505.36,606.215,663.0099999,671.69,1,1,1
24846,"fixed","deadline",22,1,2,4,3,528.195,707.935,612.8,617.2400001,1,1,1
24846,"fixed","deadline",23,1,2,4,3,466.9850001,580.845,660.3699999,966.67,1,1,1
24846,"fixed","deadline",24,1,2,4,NA,469.035,704.29,548.25,NA,1,1,1
24846,"fixed","deadline",25,1,3,2,4,427.0100001,1653.385,830.79,573.325,1,1,1
24846,"fixed","deadline",26,3,4,2,1,501.095,673.9299999,561.38,545.6150001,5,5,5
24846,"fixed","deadline",27,4,3,1,2,504.97,1041.225,662.92,539.17,5,5,5
24846,"fixed","deadline",28,4,3,2,1,449.4550001,774.525,685.6999999,583.28,6,6,6
24846,"fixed","deadline",29,4,3,1,2,494.6750001,684.26,770.8150001,605.52,5,5,5
24878,"fixed","untimed",0,1,2,4,3,7426.635,3081.375,2579.39,1807.64,1,1,1
24878,"fixed","untimed",1,1,2,4,3,1608.16,815.395,731.88,652.725,1,1,1
24878,"fixed","untimed",2,3,1,2,4,725.365,753.425,1029.29,697.125,2,2,2
24878,"fixed","untimed",3,1,2,4,3,1081.035,795.435,645.29,795.07,1,1,1
24878,"fixed","untimed",4,1,2,3,4,991.77,1268.625,634.605,763.51,0,0,0
24878,"fixed","untimed",5,1,2,3,4,951.59,701.38,1353.215,715.68,0,0,0
24878,"fixed","untimed",6,1,2,3,4,833.57,638.105,701.16,1158.49,0,0,0
24878,"fixed","untimed",7,1,2,4,3,626.515,657.845,596.73,512.775,1,1,1
24878,"fixed","untimed",8,1,2,3,4,677.165,767.765,729.365,585.235,0,0,0
24878,"fixed","untimed",9,1,2,3,4,1008.645,877.57,733.67,690.24,0,0,0
24878,"fixed","deadline",0,1,2,3,4,965.735,965.56,618.05,718.58,0,0,0
24878,"fixed","deadline",1,1,2,3,4,558.35,549.445,522.17,495.13,0,0,0
24878,"fixed","deadline",2,1,2,3,4,478.17,633.4,551.85,533.77,0,0,0
24878,"fixed","deadline",3,1,2,3,4,542.21,534.615,682.155,542.47,0,0,0
24878,"fixed","deadline",4,1,2,3,4,1168.715,542.14,652.695,571.805,0,0,0
24878,"fixed","deadline",5,1,2,3,4,553.065,804.89,480.925,494.54,0,0,0
24878,"fixed","deadline",6,1,2,3,4,641.73,578.96,541.835,515.825,0,0,0
24878,"fixed","deadline",7,1,2,3,NA,636.005,623.425,625.935,NA,0,0,0
24878,"fixed","deadline",8,1,2,3,NA,755.475,558.895,805.33,NA,0,0,0
24878,"fixed","deadline",9,1,2,3,4,720.635,622.355,633.72,573.395,0,0,0
24878,"fixed","deadline",10,1,2,3,4,494.74,563.81,589.755,519.08,0,0,0
24878,"fixed","deadline",11,1,2,3,4,481.01,548.885,588.49,560.075,0,0,0
24878,"fixed","deadline",12,1,2,3,4,551.53,558.92,560.275,600.895,0,0,0
24878,"fixed","deadline",13,1,2,3,4,477.575,523.745,547.585,553.605,0,0,0
24878,"fixed","deadline",14,1,2,3,4,730.605,530.05,589.92,555.52,0,0,0
24878,"fixed","deadline",15,1,2,3,4,703.105,546.315,610.66,587.375,0,0,0
24878,"fixed","deadline",16,1,2,3,4,521.975,602.125,610.155,591.3,0,0,0
24878,"fixed","deadline",17,1,2,3,4,505.48,590.18,548.95,1040.52,0,0,0
24878,"fixed","deadline",18,1,2,3,4,595.42,538.43,528.635,1228.445,0,0,0
24878,"fixed","deadline",19,1,2,3,NA,584.845,515.425,610.48,NA,0,0,0
24878,"fixed","deadline",20,1,2,3,4,725.21,733.275,579.635,549.24,0,0,0
24878,"fixed","deadline",21,1,2,3,4,646.075,527.07,582.385,592.065,0,0,0
24878,"fixed","deadline",22,1,2,3,4,818.7,628.955,920.43,772.245,0,0,0
24878,"fixed","deadline",23,1,2,3,4,653.135,555.555,557.095,642.93,0,0,0
24878,"fixed","deadline",24,1,2,3,4,659.865,604.575,746.08,512.11,0,0,0
24878,"fixed","deadline",25,1,2,3,4,750.8,609.305,478.615,534.33,0,0,0
24878,"fixed","deadline",26,1,2,3,4,477.785,519.25,514.625,500.685,0,0,0
24878,"fixed","deadline",27,1,2,3,4,449.79,568.515,519.625,511.37,0,0,0
24878,"fixed","deadline",28,1,2,3,4,692.21,549.245,557.785,505.27,0,0,0
24878,"fixed","deadline",29,1,2,3,4,556.745,524.27,481.32,521.915,0,0,0
24898,"fixed","untimed",0,1,2,3,4,3496,2637,1260,1401,0,0,0
24898,"fixed","untimed",1,1,2,3,4,1443,1367,1199,1206,0,0,0
24898,"fixed","untimed",2,1,2,3,4,620,1192,812,861,0,0,0
24898,"fixed","untimed",3,2,3,1,4,1612,1141,1276,740,2,2,2
24898,"fixed","untimed",4,1,2,3,4,1785,1593,1137,928,0,0,0
24898,"fixed","untimed",5,1,2,3,4,807,1275,1250,1249,0,0,0
24898,"fixed","untimed",6,1,2,3,4,604,889,761,2342,0,0,0
24898,"fixed","untimed",7,1,2,3,4,1698,1570,772,1154,0,0,0
24898,"fixed","untimed",8,1,2,3,4,799,1346,792,893,0,0,0
24898,"fixed","untimed",9,3,2,1,4,951,735,830,833,3,3,3
24898,"fixed","deadline",0,1,2,3,NA,1270,1531,692,NA,0,0,0
24898,"fixed","deadline",1,1,2,3,4,682,630,644,769,0,0,0
24898,"fixed","deadline",2,1,2,3,4,676,605,1060,665,0,0,0
24898,"fixed","deadline",3,2,3,4,1,1109,648,1002,691,3,3,3
24898,"fixed","deadline",4,4,3,2,1,457,1092,649,1190,6,6,6
24898,"fixed","deadline",5,4,3,2,1,466,960,735,725,6,6,6
24898,"fixed","deadline",6,1,2,3,4,652,599,908,1374,0,0,0
24898,"fixed","deadline",7,4,1,2,3,459,615,898,816,3,3,3
24898,"fixed","deadline",8,4,1,2,3,1512,708,783,701,3,3,3
24898,"fixed","deadline",9,1,2,3,4,1262,688,664,865,0,0,0
24898,"fixed","deadline",10,4,1,2,NA,1409,745,891,NA,3,3,3
24898,"fixed","deadline",11,1,4,3,NA,587,1136,769,NA,3,3,3
24898,"fixed","deadline",12,1,2,3,4,934,658,722,789,0,0,0
24898,"fixed","deadline",13,1,2,3,4,743,684,813,853,0,0,0
24898,"fixed","deadline",14,1,2,3,4,1126,720,693,797,0,0,0
24898,"fixed","deadline",15,1,2,3,4,569,651,656,760,0,0,0
24898,"fixed","deadline",16,1,2,3,4,652,680,646,802,0,0,0
24898,"fixed","deadline",17,1,2,3,4,730,644,643,766,0,0,0
24898,"fixed","deadline",18,1,2,3,4,1060,620,912,675,0,0,0
24898,"fixed","deadline",19,1,2,3,4,1104,632,687,762,0,0,0
24898,"fixed","deadline",20,1,2,3,NA,558,603,626,NA,0,0,0
24898,"fixed","deadline",21,1,2,3,4,672,630,616,841,0,0,0
24898,"fixed","deadline",22,1,2,3,4,658,655,1008,722,0,0,0
24898,"fixed","deadline",23,1,2,3,4,739,670,665,695,0,0,0
24898,"fixed","deadline",24,1,2,3,4,692,625,1031,669,0,0,0
24898,"fixed","deadline",25,1,2,3,4,478,616,1072,677,0,0,0
24898,"fixed","deadline",26,1,2,3,4,742,656,598,785,0,0,0
24898,"fixed","deadline",27,1,2,3,4,784,649,633,770,0,0,0
24898,"fixed","deadline",28,1,2,3,4,433,749,632,698,0,0,0
24898,"fixed","deadline",29,1,2,3,4,705,584,636,698,0,0,0
24905,"fixed","untimed",0,1,3,2,4,7158,1495,1166,1221,1,1,1
24905,"fixed","untimed",1,1,3,2,4,1502,1017,784,645,1,1,1
24905,"fixed","untimed",2,1,3,2,4,833,633,588,618,1,1,1
24905,"fixed","untimed",3,4,2,3,1,717,439,423,309,5,5,5
24905,"fixed","untimed",4,1,3,2,4,653,581,334,335,1,1,1
24905,"fixed","untimed",5,1,3,2,4,556,402,412,443,1,1,1
24905,"fixed","untimed",6,1,3,2,4,556,479,438,530,1,1,1
24905,"fixed","untimed",7,1,3,2,4,521,328,606,534,1,1,1
24905,"fixed","untimed",8,1,3,2,4,635,328,568,579,1,1,1
24905,"fixed","untimed",9,1,3,2,4,506,356,335,450,1,1,1
24905,"fixed","deadline",0,1,3,2,4,1174,467,370,374,1,1,1
24905,"fixed","deadline",1,1,3,2,4,483,426,419,360,1,1,1
24905,"fixed","deadline",2,1,3,2,4,438,331,329,367,1,1,1
24905,"fixed","deadline",3,1,3,2,4,447,333,348,377,1,1,1
24905,"fixed","deadline",4,1,3,2,4,358,311,304,301,1,1,1
24905,"fixed","deadline",5,1,3,2,4,525,309,289,343,1,1,1
24905,"fixed","deadline",6,1,3,2,4,436,292,291,384,1,1,1
24905,"fixed","deadline",7,1,3,2,4,512,312,255,268,1,1,1
24905,"fixed","deadline",8,1,3,2,4,333,287,331,302,1,1,1
24905,"fixed","deadline",9,1,3,2,4,427,309,302,324,1,1,1
24905,"fixed","deadline",10,1,3,2,4,373,259,341,370,1,1,1
24905,"fixed","deadline",11,1,3,2,4,399,280,369,283,1,1,1
24905,"fixed","deadline",12,1,3,2,4,368,290,403,370,1,1,1
24905,"fixed","deadline",13,1,3,2,4,349,290,304,315,1,1,1
24905,"fixed","deadline",14,1,3,2,4,485,254,337,333,1,1,1
24905,"fixed","deadline",15,1,3,2,4,355,285,319,330,1,1,1
24905,"fixed","deadline",16,1,3,2,4,333,324,308,738,1,1,1
24905,"fixed","deadline",17,1,3,2,4,515,296,307,344,1,1,1
24905,"fixed","deadline",18,1,3,2,4,319,382,340,446,1,1,1
24905,"fixed","deadline",19,1,3,2,4,382,300,296,287,1,1,1
24905,"fixed","deadline",20,1,3,2,4,384,323,286,318,1,1,1
24905,"fixed","deadline",21,1,3,2,4,347,677,276,359,1,1,1
24905,"fixed","deadline",22,1,3,2,4,717,267,282,360,1,1,1
24905,"fixed","deadline",23,1,3,2,4,586,650,298,305,1,1,1
24905,"fixed","deadline",24,1,3,2,4,383,254,280,334,1,1,1
24905,"fixed","deadline",25,1,3,2,4,330,304,299,358,1,1,1
24905,"fixed","deadline",26,1,3,2,4,415,333,305,302,1,1,1
24905,"fixed","deadline",27,4,1,3,2,444,266,273,376,4,4,4
24905,"fixed","deadline",28,4,2,3,1,332,582,272,395,5,5,5
24905,"fixed","deadline",29,1,3,2,4,399,686,486,387,1,1,1
24910,"fixed","untimed",0,1,2,3,4,8819.765,7344.145,1577.655,1160.3,0,0,0
24910,"fixed","untimed",1,1,2,3,4,1434.21,3386.6,1592.88,1922.34,0,0,0
24910,"fixed","untimed",2,1,2,3,4,1008.725,3200.16,1158.685,3229.16,0,0,0
24910,"fixed","untimed",3,1,2,4,3,1436.01,1178.75,989.88,1003.42,1,1,1
24910,"fixed","untimed",4,4,2,3,1,1207.91,1007.605,810.09,1088.695,5,5,5
24910,"fixed","untimed",5,4,2,3,1,795.91,888.31,1016.515,972.395,5,5,5
24910,"fixed","untimed",6,1,2,3,4,593.21,795.39,847.055,1055.775,0,0,0
24910,"fixed","untimed",7,4,1,3,2,897.03,1057.22,712.065,930.85,4,4,4
24910,"fixed","untimed",8,2,3,1,4,1024.875,811.24,1017.145,754.515,2,2,2
24910,"fixed","untimed",9,4,2,3,1,873.315,862.62,687.31,741.19,5,5,5
24910,"fixed","deadline",0,2,3,1,4,1383.34,833.205,783.145,712.58,2,2,2
24910,"fixed","deadline",1,1,4,2,NA,659.745,711.195,706.655,NA,2,2,2
24910,"fixed","deadline",2,2,3,NA,NA,774.915,975.215,NA,NA,2.5,2,3
24910,"fixed","deadline",3,1,2,3,4,602.48,899.65,680.85,843.91,0,0,0
24910,"fixed","deadline",4,1,3,2,4,904.035,812.18,655.48,705.535,1,1,1
24910,"fixed","deadline",5,1,4,2,NA,991.38,675.78,874.905,NA,2,2,2
24910,"fixed","deadline",6,1,3,2,4,612.705,649.5,680.905,760.71,1,1,1
24910,"fixed","deadline",7,1,3,2,4,991.74,704.27,1111.215,683.265,1,1,1
24910,"fixed","deadline",8,1,2,3,NA,1334.495,976.395,517.97,NA,0,0,0
24910,"fixed","deadline",9,1,2,3,4,695.005,1015.86,733.055,904.805,0,0,0
24910,"fixed","deadline",10,1,2,3,4,682.685,782.835,791.315,928.71,0,0,0
24910,"fixed","deadline",11,1,2,3,4,629.725,955.175,876.275,769.625,0,0,0
24910,"fixed","deadline",12,1,2,3,4,644.19,807.3,664.2,709.665,0,0,0
24910,"fixed","deadline",13,1,2,3,NA,963.445,991.97,784.36,NA,0,0,0
24910,"fixed","deadline",14,1,2,3,4,625.175,890.88,714.38,831.64,0,0,0
24910,"fixed","deadline",15,1,2,3,4,914.615,747.44,721.74,791.795,0,0,0
24910,"fixed","deadline",16,1,2,3,4,821.085,752.12,639.56,849.49,0,0,0
24910,"fixed","deadline",17,1,2,3,4,1308.845,913.985,641.325,756.985,0,0,0
24910,"fixed","deadline",18,1,2,3,4,728.88,688.125,689.305,699.21,0,0,0
24910,"fixed","deadline",19,1,2,3,4,548.19,666.955,1162.595,762.03,0,0,0
24910,"fixed","deadline",20,1,2,3,4,597.33,650.325,736.62,738.41,0,0,0
24910,"fixed","deadline",21,1,2,3,4,627.625,644.2,698.935,738.335,0,0,0
24910,"fixed","deadline",22,1,2,3,4,658.655,625.565,702.695,796.5,0,0,0
24910,"fixed","deadline",23,1,2,3,4,727.08,750.835,826.36,845.555,0,0,0
24910,"fixed","deadline",24,1,2,3,4,667.08,653.7,718.48,720.81,0,0,0
24910,"fixed","deadline",25,1,2,3,4,720.905,672.46,686.79,829.54,0,0,0
24910,"fixed","deadline",26,1,2,3,4,641.78,613.445,621.295,766.205,0,0,0
24910,"fixed","deadline",27,1,2,3,4,646.87,608.95,573.77,784.17,0,0,0
24910,"fixed","deadline",28,1,2,3,4,731.34,683.9,653.7,767.92,0,0,0
24910,"fixed","deadline",29,1,2,3,4,568.62,599.78,631.09,722.31,0,0,0
24920,"fixed","untimed",0,2,NA,NA,NA,2239,NA,NA,NA,2.5,1,4
24920,"fixed","untimed",1,1,NA,NA,NA,5202,NA,NA,NA,1.5,0,3
24920,"fixed","untimed",2,1,NA,NA,NA,2355,NA,NA,NA,1.5,0,3
24920,"fixed","untimed",3,1,2,4,3,1768,5301,4143,2775,1,1,1
24920,"fixed","untimed",4,3,4,2,1,1971,3131,2759,1495,5,5,5
24920,"fixed","untimed",5,1,3,4,2,699,830,880,1003,2,2,2
24920,"fixed","untimed",6,1,3,4,2,884,1427,1201,614,2,2,2
24920,"fixed","untimed",7,2,1,3,4,1046,1201,590,1188,1,1,1
24920,"fixed","untimed",8,1,2,4,3,1008,989,1192,851,1,1,1
24920,"fixed","untimed",9,1,2,4,3,779,2328,753,773,1,1,1
24920,"fixed","deadline",0,1,3,4,NA,1393,1370,776,NA,2,2,2
24920,"fixed","deadline",1,1,3,4,2,994,1023,1176,670,2,2,2
24920,"fixed","deadline",2,1,3,4,2,998,730,658,585,2,2,2
24920,"fixed","deadline",3,1,3,4,2,609,870,829,671,2,2,2
24920,"fixed","deadline",4,1,3,NA,NA,1277,729,NA,NA,1.5,1,2
24920,"fixed","deadline",5,1,3,4,2,689,972,826,732,2,2,2
24920,"fixed","deadline",6,1,3,4,2,1015,798,832,788,2,2,2
24920,"fixed","deadline",7,1,3,4,NA,798,1228,799,NA,2,2,2
24920,"fixed","deadline",8,1,3,4,2,882,851,695,886,2,2,2
24920,"fixed","deadline",9,1,3,4,2,593,1138,1109,639,2,2,2
24920,"fixed","deadline",10,1,2,4,3,541,770,701,752,1,1,1
24920,"fixed","deadline",11,1,2,4,3,548,991,758,1167,1,1,1
24920,"fixed","deadline",12,1,2,4,3,681,718,871,1361,1,1,1
24920,"fixed","deadline",13,1,2,4,3,669,686,907,692,1,1,1
24920,"fixed","deadline",14,1,2,4,3,663,885,795,1599,1,1,1
24920,"fixed","deadline",15,1,2,4,3,552,667,659,834,1,1,1
24920,"fixed","deadline",16,1,2,4,3,478,638,529,589,1,1,1
24920,"fixed","deadline",17,1,2,4,3,424,570,530,610,1,1,1
24920,"fixed","deadline",18,1,2,4,3,603,578,584,676,1,1,1
24920,"fixed","deadline",19,1,2,4,3,569,524,546,550,1,1,1
24920,"fixed","deadline",20,1,2,4,3,645,599,592,650,1,1,1
24920,"fixed","deadline",21,1,2,4,3,786,533,528,570,1,1,1
24920,"fixed","deadline",22,1,2,4,3,417,603,589,1068,1,1,1
24920,"fixed","deadline",23,1,2,4,3,433,751,561,565,1,1,1
24920,"fixed","deadline",24,1,2,4,3,540,590,722,854,1,1,1
24920,"fixed","deadline",25,1,2,4,3,498,559,603,672,1,1,1
24920,"fixed","deadline",26,1,2,4,NA,692,700,1159,NA,1,1,1
24920,"fixed","deadline",27,1,2,4,3,576,946,964,623,1,1,1
24920,"fixed","deadline",28,1,2,4,3,494,622,675,536,1,1,1
24920,"fixed","deadline",29,1,2,4,3,383,741,1637,806,1,1,1
24942,"fixed","untimed",0,1,4,3,2,5270.495,2304.2,4314.31,1170.38,3,3,3
24942,"fixed","untimed",1,1,4,3,2,1110.38,940.285,1651.78,956.94,3,3,3
24942,"fixed","untimed",2,1,2,3,4,1434.48,916.3,916.675,896.185,0,0,0
24942,"fixed","untimed",3,1,2,3,4,1063.44,724.92,594.855,611.71,0,0,0
24942,"fixed","untimed",4,1,2,3,4,1057.375,560.725,561.675,608.425,0,0,0
24942,"fixed","untimed",5,1,2,3,4,893.565,778.43,526.02,821.955,0,0,0
24942,"fixed","untimed",6,1,2,3,4,606.515,535.645,538.235,573.54,0,0,0
24942,"fixed","untimed",7,1,2,3,4,623.44,619.48,551.485,640.71,0,0,0
24942,"fixed","untimed",8,1,2,3,4,386.225,632.4,519.385,603.345,0,0,0
24942,"fixed","untimed",9,1,2,3,4,387.395,511.57,492.32,529.145,0,0,0
24942,"fixed","deadline",0,1,2,3,4,947.885,524.39,907.275,540.93,0,0,0
24942,"fixed","deadline",1,1,2,3,4,553.06,490.72,471.805,566.27,0,0,0
24942,"fixed","deadline",2,1,2,3,4,527.27,536.855,492.44,557.045,0,0,0
24942,"fixed","deadline",3,1,2,3,4,608.645,599.535,506.38,549.81,0,0,0
24942,"fixed","deadline",4,1,2,3,NA,484.035,576.265,623.14,NA,0,0,0
24942,"fixed","deadline",5,1,2,3,4,480.995,523.88,527.33,546.8,0,0,0
24942,"fixed","deadline",6,1,2,3,4,577.565,563.76,486.415,841.925,0,0,0
24942,"fixed","deadline",7,1,2,3,4,540.095,543.285,485.57,587.96,0,0,0
24942,"fixed","deadline",8,1,2,3,4,366.975,564.355,526.04,614.73,0,0,0
24942,"fixed","deadline",9,1,2,3,4,468.91,594.77,459.56,585.88,0,0,0
24942,"fixed","deadline",10,1,2,3,4,496.92,519.7,499.115,929.38,0,0,0
24942,"fixed","deadline",11,1,2,3,4,363.155,584.555,529.03,515.785,0,0,0
24942,"fixed","deadline",12,1,2,3,4,459.915,589.69,913.895,682.855,0,0,0
24942,"fixed","deadline",13,1,2,3,4,482.665,535.57,493.35,680.47,0,0,0
24942,"fixed","deadline",14,1,2,3,4,398.91,475.505,418.53,535.025,0,0,0
24942,"fixed","deadline",15,1,2,3,4,341.565,513.945,389.305,666.47,0,0,0
24942,"fixed","deadline",16,1,2,3,4,334.62,511.255,458.67,680.44,0,0,0
24942,"fixed","deadline",17,1,2,3,4,366.05,576.385,484.595,784.925,0,0,0
24942,"fixed","deadline",18,1,2,3,4,298.425,465.185,600.34,728.1,0,0,0
24942,"fixed","deadline",19,1,2,3,4,332.45,501.375,536.645,502.36,0,0,0
24942,"fixed","deadline",20,1,2,3,4,329.555,885.745,800.475,544.6,0,0,0
24942,"fixed","deadline",21,1,2,3,4,337.88,527.645,531.345,565.6,0,0,0
24942,"fixed","deadline",22,1,2,3,4,426.47,597.535,460.99,516.305,0,0,0
24942,"fixed","deadline",23,1,2,3,4,382.085,538.67,502.405,546.55,0,0,0
24942,"fixed","deadline",24,1,2,3,4,469.4,875.335,448.285,528.505,0,0,0
24942,"fixed","deadline",25,1,2,3,4,334.42,579.285,454.535,554.12,0,0,0
24942,"fixed","deadline",26,1,2,3,4,505.71,1002.425,430.96,523.53,0,0,0
24942,"fixed","deadline",27,1,2,3,4,349.035,562.435,519.65,576.925,0,0,0
24942,"fixed","deadline",28,1,2,3,4,414.125,517.095,450.25,541.055,0,0,0
24942,"fixed","deadline",29,1,2,3,4,433.415,538.95,694.88,578.32,0,0,0
24962,"fixed","untimed",0,2,1,3,4,6307.84,2373.275,1993.4,1278.755,1,1,1
24962,"fixed","untimed",1,1,2,3,4,2394.435,1180.905,2835.87,749.65,0,0,0
24962,"fixed","untimed",2,1,2,3,4,1781.83,1240.395,989.31,796.855,0,0,0
24962,"fixed","untimed",3,1,2,3,4,1959.355,2251.425,955.3050001,852.065,0,0,0
24962,"fixed","untimed",4,1,2,3,4,1019.38,1053.815,1075.9,657.0250001,0,0,0
24962,"fixed","untimed",5,1,2,3,4,866.985,755.3899999,591.9,633.885,0,0,0
24962,"fixed","untimed",6,1,2,3,4,1170.86,657.41,758.3000001,649.3050001,0,0,0
24962,"fixed","untimed",7,1,2,3,4,1502.31,638.0250001,586.29,602.79,0,0,0
24962,"fixed","untimed",8,1,2,3,4,666.5599999,917.885,514.495,596.125,0,0,0
24962,"fixed","untimed",9,1,2,3,4,529.52,789.1950001,489.5550001,587.06,0,0,0
24962,"fixed","deadline",0,1,2,3,NA,1535.315,1581.465,1124.67,NA,0,0,0
24962,"fixed","deadline",1,3,4,2,1,887.1249999,724.86,1356.01,839.35,5,5,5
24962,"fixed","deadline",2,1,3,2,4,589.16,437.25,485.68,515.75,1,1,1
24962,"fixed","deadline",3,1,2,3,4,474.4099999,422.3099999,392.9,531.645,0,0,0
24962,"fixed","deadline",4,1,3,2,4,808.8850001,369.5449999,439.9250001,506.97,1,1,1
24962,"fixed","deadline",5,1,2,3,4,418.07,413.4900001,520.995,479.135,0,0,0
24962,"fixed","deadline",6,1,2,3,4,580.4250001,565.86,377.7599999,451.0349999,0,0,0
24962,"fixed","deadline",7,1,2,3,4,552.455,467.3949999,461.01,446.53,0,0,0
24962,"fixed","deadline",8,1,2,3,4,545.38,519.62,328.71,466.3999999,0,0,0
24962,"fixed","deadline",9,1,2,3,4,420.745,795.96,397.9000001,493.08,0,0,0
24962,"fixed","deadline",10,1,2,3,4,344.925,440.3349999,301.315,474.7050001,0,0,0
24962,"fixed","deadline",11,1,2,3,4,570.31,396.645,396.31,446.3200001,0,0,0
24962,"fixed","deadline",12,1,2,3,4,512.4349999,442.03,434.3699999,439.035,0,0,0
24962,"fixed","deadline",13,1,2,3,4,349.2150001,438.9300001,388.0350001,441.935,0,0,0
24962,"fixed","deadline",14,1,2,3,4,734.9500001,419,389.215,464.5750001,0,0,0
24962,"fixed","deadline",15,1,2,3,4,346.875,405.01,394.5950001,462.83,0,0,0
24962,"fixed","deadline",16,1,2,3,4,351.575,463.72,364.77,492.77,0,0,0
24962,"fixed","deadline",17,1,2,3,4,625.6050001,343.92,396.0099999,524.89,0,0,0
24962,"fixed","deadline",18,1,2,3,4,746.4749999,333.075,346.745,396.5649999,0,0,0
24962,"fixed","deadline",19,1,2,3,4,407.59,404.0699999,352.63,451.805,0,0,0
24962,"fixed","deadline",20,1,2,3,4,777.98,390.9799999,328.55,465.98,0,0,0
24962,"fixed","deadline",21,1,2,3,4,358.7549999,383.59,386.775,431.94,0,0,0
24962,"fixed","deadline",22,1,2,3,4,533.3299999,365.8500001,359.51,734.65,0,0,0
24962,"fixed","deadline",23,1,2,3,4,388.565,398.77,355.4,431.035,0,0,0
24962,"fixed","deadline",24,1,2,3,4,779.64,344.975,375.2049999,434.44,0,0,0
24962,"fixed","deadline",25,1,2,3,4,363.825,408.975,389.795,1263.46,0,0,0
24962,"fixed","deadline",26,1,2,3,4,569.0149999,327.7400001,386.28,734.4749999,0,0,0
24962,"fixed","deadline",27,1,2,3,4,636.0650001,390.9999999,401.555,759.2,0,0,0
24962,"fixed","deadline",28,1,2,3,4,579.09,347.695,384.1,469.75,0,0,0
24962,"fixed","deadline",29,1,2,3,4,329.39,406.4100001,374.59,559.3300001,0,0,0
24980,"fixed","untimed",0,1,3,2,4,2277.255,1939.43,781.205,855.455,1,1,1
24980,"fixed","untimed",1,1,3,2,4,1283.3,711.875,564,579.2,1,1,1
24980,"fixed","untimed",2,1,3,2,4,1103.55,621.705,801.17,616.11,1,1,1
24980,"fixed","untimed",3,1,3,2,4,558.485,629.555,605.425,550.74,1,1,1
24980,"fixed","untimed",4,1,3,2,4,426.88,578.525,713.33,615.225,1,1,1
24980,"fixed","untimed",5,1,3,2,4,501.445,496.195,537.485,541.08,1,1,1
24980,"fixed","untimed",6,1,3,2,4,424.235,522.595,463.6,580.77,1,1,1
24980,"fixed","untimed",7,1,3,2,4,319.275,566.97,602.845,643.8,1,1,1
24980,"fixed","untimed",8,1,3,2,4,327.235,536.02,957.135,692.805,1,1,1
24980,"fixed","untimed",9,1,3,2,4,364.545,520.33,613.68,723.045,1,1,1
24980,"fixed","deadline",0,1,3,2,4,955.805,536.21,599.21,565.76,1,1,1
24980,"fixed","deadline",1,1,3,2,NA,513.14,477.935,543.98,NA,1,1,1
24980,"fixed","deadline",2,1,3,2,4,530.375,548.635,571.165,540.025,1,1,1
24980,"fixed","deadline",3,1,3,2,4,328.21,451.015,608.04,487.965,1,1,1
24980,"fixed","deadline",4,1,3,2,4,319.28,460.795,586.51,806.825,1,1,1
24980,"fixed","deadline",5,1,3,2,NA,335.015,649.82,633.015,NA,1,1,1
24980,"fixed","deadline",6,1,3,2,4,370.545,649.755,501.06,482.6,1,1,1
24980,"fixed","deadline",7,1,3,2,4,397.47,519.28,545.025,533.93,1,1,1
24980,"fixed","deadline",8,1,3,2,4,412.315,750.095,874.58,571.365,1,1,1
24980,"fixed","deadline",9,1,3,2,4,368.165,503.24,611.51,489.24,1,1,1
24980,"fixed","deadline",10,1,3,2,4,304.26,481.875,448.985,507.995,1,1,1
24980,"fixed","deadline",11,1,3,2,4,326.705,487.53,566.715,627.93,1,1,1
24980,"fixed","deadline",12,1,3,2,4,489.61,643.295,531.43,492.045,1,1,1
24980,"fixed","deadline",13,1,3,2,4,347.74,542.635,573.93,505.82,1,1,1
24980,"fixed","deadline",14,1,3,2,4,417.15,459.39,487,442.255,1,1,1
24980,"fixed","deadline",15,1,3,2,4,345.77,593.975,472.565,555.87,1,1,1
24980,"fixed","deadline",16,1,3,2,4,335.195,640.91,477.885,493.765,1,1,1
24980,"fixed","deadline",17,1,3,4,2,383.28,542.645,913.9,546.05,2,2,2
24980,"fixed","deadline",18,1,3,2,4,304.675,516.89,466.46,610.925,1,1,1
24980,"fixed","deadline",19,1,3,2,4,306.59,440.885,512.77,480.84,1,1,1
24980,"fixed","deadline",20,1,3,2,4,362.94,492.755,595.385,562.47,1,1,1
24980,"fixed","deadline",21,1,3,2,4,345.51,451.345,467.29,534.155,1,1,1
24980,"fixed","deadline",22,1,3,2,4,372.07,484.095,845.56,566.61,1,1,1
24980,"fixed","deadline",23,1,3,2,4,328.47,472.255,575.03,1252.785,1,1,1
24980,"fixed","deadline",24,1,3,2,4,328.66,750.225,451.12,478.91,1,1,1
24980,"fixed","deadline",25,1,3,2,4,324.575,594.655,478.185,448.925,1,1,1
24980,"fixed","deadline",26,1,3,2,4,339.58,567.23,454,490.685,1,1,1
24980,"fixed","deadline",27,1,3,2,4,433.225,505.77,561.615,472.46,1,1,1
24980,"fixed","deadline",28,1,3,2,4,341.125,481.4,546.4,605.27,1,1,1
24980,"fixed","deadline",29,1,3,2,4,352.125,510.515,521.685,556.565,1,1,1
25011,"fixed","untimed",0,2,3,1,4,6400,2216,1418,3488,2,2,2
25011,"fixed","untimed",1,1,2,3,4,1326,961,877,1096,0,0,0
25011,"fixed","untimed",2,1,2,3,4,984,901,946,1211,0,0,0
25011,"fixed","untimed",3,1,2,3,4,803,924,873,1092,0,0,0
25011,"fixed","untimed",4,1,2,3,4,699,811,824,1445,0,0,0
25011,"fixed","untimed",5,1,2,3,4,1089,746,737,1187,0,0,0
25011,"fixed","untimed",6,1,2,3,4,1481,851,714,1326,0,0,0
25011,"fixed","untimed",7,1,2,3,4,761,772,803,710,0,0,0
25011,"fixed","untimed",8,1,2,3,4,641,731,926,712,0,0,0
25011,"fixed","untimed",9,1,2,3,4,632,675,704,1021,0,0,0
25011,"fixed","deadline",0,1,2,3,4,1006,725,990,830,0,0,0
25011,"fixed","deadline",1,1,2,3,4,385,617,603,1003,0,0,0
25011,"fixed","deadline",2,1,2,3,4,738,598,737,652,0,0,0
25011,"fixed","deadline",3,1,2,3,4,647,618,584,668,0,0,0
25011,"fixed","deadline",4,1,2,3,4,1402,575,530,840,0,0,0
25011,"fixed","deadline",5,1,2,3,4,441,547,568,966,0,0,0
25011,"fixed","deadline",6,1,2,3,4,531,560,548,883,0,0,0
25011,"fixed","deadline",7,1,2,3,4,540,850,900,819,0,0,0
25011,"fixed","deadline",8,1,2,3,NA,527,504,1165,NA,0,0,0
25011,"fixed","deadline",9,1,2,3,4,407,527,891,803,0,0,0
25011,"fixed","deadline",10,1,2,3,NA,798,633,627,NA,0,0,0
25011,"fixed","deadline",11,1,2,3,4,434,604,624,822,0,0,0
25011,"fixed","deadline",12,1,2,3,4,620,561,583,676,0,0,0
25011,"fixed","deadline",13,1,2,3,4,493,569,841,591,0,0,0
25011,"fixed","deadline",14,1,2,3,4,628,492,507,980,0,0,0
25011,"fixed","deadline",15,1,2,3,4,459,484,522,594,0,0,0
25011,"fixed","deadline",16,1,2,3,4,522,547,584,763,0,0,0
25011,"fixed","deadline",17,1,2,3,4,617,468,599,647,0,0,0
25011,"fixed","deadline",18,1,2,3,4,458,529,740,630,0,0,0
25011,"fixed","deadline",19,1,2,3,4,476,471,479,582,0,0,0
25011,"fixed","deadline",20,1,2,3,4,421,508,985,540,0,0,0
25011,"fixed","deadline",21,1,2,3,4,603,1132,510,729,0,0,0
25011,"fixed","deadline",22,1,2,3,4,593,836,537,776,0,0,0
25011,"fixed","deadline",23,1,2,3,4,742,558,499,811,0,0,0
25011,"fixed","deadline",24,1,2,3,4,508,595,977,642,0,0,0
25011,"fixed","deadline",25,1,2,3,4,516,507,623,663,0,0,0
25011,"fixed","deadline",26,1,2,3,NA,907,558,882,NA,0,0,0
25011,"fixed","deadline",27,1,2,3,4,788,500,558,783,0,0,0
25011,"fixed","deadline",28,1,2,3,NA,632,880,674,NA,0,0,0
25011,"fixed","deadline",29,1,2,3,4,517,776,488,773,0,0,0
25031,"fixed","untimed",0,1,2,4,3,6080.69,1742.31,2269.49,3912.06,1,1,1
25031,"fixed","untimed",1,3,2,NA,NA,6127.28,3066.44,NA,NA,3.5,3,4
25031,"fixed","untimed",2,4,3,NA,NA,1551.965,16858.55,NA,NA,5.5,5,6
25031,"fixed","untimed",3,1,3,4,2,1160.545,1277.6,1122.69,1169.115,2,2,2
25031,"fixed","untimed",4,2,1,3,4,713.975,1318.56,1083.66,1105.65,1,1,1
25031,"fixed","untimed",5,2,1,3,4,1483.34,1089.815,970.005,942.945,1,1,1
25031,"fixed","untimed",6,1,2,4,3,3905.89,1071.44,840.535,889.11,1,1,1
25031,"fixed","untimed",7,2,1,3,4,618.145,702.685,1020.81,845.855,1,1,1
25031,"fixed","untimed",8,1,2,3,4,2285.48,880.945,1122.055,793.265,0,0,0
25031,"fixed","untimed",9,2,1,3,4,1253.16,681.515,722.335,909.565,1,1,1
25031,"fixed","deadline",0,2,1,3,4,1123.78,609.61,580.15,910.82,1,1,1
25031,"fixed","deadline",1,2,1,3,NA,1005.865,622.94,645.815,NA,1,1,1
25031,"fixed","deadline",2,2,1,3,4,769.995,660.635,562.045,694.295,1,1,1
25031,"fixed","deadline",3,2,1,3,4,623.07,517.515,599.58,882.975,1,1,1
25031,"fixed","deadline",4,2,1,3,NA,795.765,728.25,647.905,NA,1,1,1
25031,"fixed","deadline",5,2,1,3,4,586.93,843.63,581.515,852.6,1,1,1
25031,"fixed","deadline",6,2,1,3,4,940.415,545.46,541.035,649.48,1,1,1
25031,"fixed","deadline",7,2,1,3,NA,588.24,948.845,565.01,NA,1,1,1
25031,"fixed","deadline",8,3,1,2,4,690.905,686.145,670.88,548.75,2,2,2
25031,"fixed","deadline",9,2,1,3,4,543.935,741.2,1091.825,777.845,1,1,1
25031,"fixed","deadline",10,2,1,3,4,490.74,713.625,720.675,727.765,1,1,1
25031,"fixed","deadline",11,4,3,NA,NA,633.805,807.345,NA,NA,5.5,5,6
25031,"fixed","deadline",12,2,1,3,4,433.35,590.94,738.525,778.935,1,1,1
25031,"fixed","deadline",13,2,1,3,4,522.85,633.595,586.85,696.885,1,1,1
25031,"fixed","deadline",14,2,1,3,4,1047.73,564.955,610.275,1073.55,1,1,1
25031,"fixed","deadline",15,2,1,3,NA,827.525,552.06,1004.875,NA,1,1,1
25031,"fixed","deadline",16,1,2,4,NA,1182.305,578.645,680.19,NA,1,1,1
25031,"fixed","deadline",17,2,1,3,4,464.99,619.415,588.97,652,1,1,1
25031,"fixed","deadline",18,2,1,3,4,582.255,614.905,1002.025,667.855,1,1,1
25031,"fixed","deadline",19,2,1,3,4,453.475,542.515,707.245,570.63,1,1,1
25031,"fixed","deadline",20,2,1,3,NA,867.91,509,868,NA,1,1,1
25031,"fixed","deadline",21,2,1,3,NA,616.35,645.41,651.135,NA,1,1,1
25031,"fixed","deadline",22,2,1,3,4,481.045,501.49,586.77,779.765,1,1,1
25031,"fixed","deadline",23,2,1,3,4,488.965,618.54,574.57,760.045,1,1,1
25031,"fixed","deadline",24,2,1,3,4,407.095,574.885,536.67,657.515,1,1,1
25031,"fixed","deadline",25,2,1,3,4,650.65,943.595,493.865,667.725,1,1,1
25031,"fixed","deadline",26,2,1,3,4,562.025,943.34,506.435,652.41,1,1,1
25031,"fixed","deadline",27,2,1,3,4,536.69,589.36,523.99,666.38,1,1,1
25031,"fixed","deadline",28,2,1,3,4,690.585,581.105,651.595,721.255,1,1,1
25031,"fixed","deadline",29,2,1,3,4,604.235,612.895,657.13,644.585,1,1,1
25088,"fixed","untimed",0,1,2,4,3,3944.975,1658.855,1152.605,1436.88,1,1,1
25088,"fixed","untimed",1,1,2,4,3,2098.785,1942.505,1444.2,1041.18,1,1,1
25088,"fixed","untimed",2,1,4,2,3,1210.88,1459.175,1333.295,1039.3,2,2,2
25088,"fixed","untimed",3,1,4,2,3,805.875,749.245,664.335,721.6099999,2,2,2
25088,"fixed","untimed",4,1,4,2,3,859.18,880.175,967.29,825.445,2,2,2
25088,"fixed","untimed",5,1,2,4,3,1146.33,943.37,680.95,791.16,1,1,1
25088,"fixed","untimed",6,1,4,2,3,986.305,755.48,777.825,924.35,2,2,2
25088,"fixed","untimed",7,1,4,2,3,1134.135,802.93,648.815,713.78,2,2,2
25088,"fixed","untimed",8,1,4,2,3,1123.015,1100.59,746.095,778.095,2,2,2
25088,"fixed","untimed",9,1,4,2,3,955.99,717.47,824.46,1013.95,2,2,2
25088,"fixed","deadline",0,1,2,4,NA,1145.725,630.335,548.295,NA,1,1,1
25088,"fixed","deadline",1,1,2,4,NA,637.095,516.605,751.785,NA,1,1,1
25088,"fixed","deadline",2,1,2,3,4,796.875,577.255,591.675,1186.715,0,0,0
25088,"fixed","deadline",3,1,2,3,NA,580.885,534.495,571.985,NA,0,0,0
25088,"fixed","deadline",4,1,2,3,4,898.235,736.305,494.015,795.38,0,0,0
25088,"fixed","deadline",5,1,2,3,4,548.825,697.77,445.065,640.7,0,0,0
25088,"fixed","deadline",6,1,2,3,4,483.155,485.81,691.725,645.96,0,0,0
25088,"fixed","deadline",7,1,2,4,3,572.35,578.18,533.745,637.57,1,1,1
25088,"fixed","deadline",8,1,2,3,4,840.415,455.1,458.25,671.23,0,0,0
25088,"fixed","deadline",9,1,2,3,4,546.275,501.27,439.73,704.795,0,0,0
25088,"fixed","deadline",10,1,2,3,4,526.36,830.36,517.5,550.605,0,0,0
25088,"fixed","deadline",11,1,2,3,4,447.09,586.03,427.12,569.79,0,0,0
25088,"fixed","deadline",12,1,2,3,NA,483.105,451.35,431.005,NA,0,0,0
25088,"fixed","deadline",13,1,2,3,4,623.955,490.1,828.055,613.675,0,0,0
25088,"fixed","deadline",14,1,2,3,4,504.115,464.7,492.86,671.155,0,0,0
25088,"fixed","deadline",15,1,2,3,4,537.73,1234.1,581.9,533.805,0,0,0
25088,"fixed","deadline",16,1,2,3,4,712.42,449.2799999,407.475,569.06,0,0,0
25088,"fixed","deadline",17,1,2,3,4,516.4,389.595,434.825,555.99,0,0,0
25088,"fixed","deadline",18,1,2,3,4,1050.555,671.16,473.025,579.975,0,0,0
25088,"fixed","deadline",19,1,2,3,4,560.725,427.49,758.69,438.53,0,0,0
25088,"fixed","deadline",20,1,2,3,4,436.225,399.97,535.615,525.3,0,0,0
25088,"fixed","deadline",21,1,2,3,4,724.545,555.23,670.1,534.845,0,0,0
25088,"fixed","deadline",22,1,2,3,4,437.365,461.74,639.105,541.705,0,0,0
25088,"fixed","deadline",23,1,2,4,3,557.945,418.505,523.835,761.83,1,1,1
25088,"fixed","deadline",24,1,4,2,NA,446.24,506.43,602.225,NA,2,2,2
25088,"fixed","deadline",25,1,2,3,4,741.075,457.145,786.435,468.715,0,0,0
25088,"fixed","deadline",26,1,2,3,4,906.065,426.81,1177.085,623.185,0,0,0
25088,"fixed","deadline",27,1,2,3,4,544.01,540.08,504.8,831.87,0,0,0
25088,"fixed","deadline",28,1,2,3,4,481.1,428.48,535.875,580.595,0,0,0
25088,"fixed","deadline",29,1,2,3,NA,525.89,501.15,505.575,NA,0,0,0
25109,"fixed","untimed",0,2,3,4,1,6116,4102,1841,2188,3,3,3
25109,"fixed","untimed",1,1,2,4,3,1065,724,660,1365,1,1,1
25109,"fixed","untimed",2,1,2,4,3,1057,755,822,918,1,1,1
25109,"fixed","untimed",3,1,2,4,3,926,802,678,717,1,1,1
25109,"fixed","untimed",4,1,2,4,3,902,673,774,721,1,1,1
25109,"fixed","untimed",5,1,2,4,3,1245,861,615,634,1,1,1
25109,"fixed","untimed",6,1,2,4,3,1307,638,614,668,1,1,1
25109,"fixed","untimed",7,1,2,4,3,889,590,654,600,1,1,1
25109,"fixed","untimed",8,1,2,4,3,573,610,560,584,1,1,1
25109,"fixed","untimed",9,1,2,4,3,439,604,546,638,1,1,1
25109,"fixed","deadline",0,1,2,4,3,1157,514,545,574,1,1,1
25109,"fixed","deadline",1,1,2,4,3,495,556,550,981,1,1,1
25109,"fixed","deadline",2,1,2,4,NA,612,569,528,NA,1,1,1
25109,"fixed","deadline",3,1,2,4,3,506,525,595,537,1,1,1
25109,"fixed","deadline",4,1,2,4,3,447,568,567,625,1,1,1
25109,"fixed","deadline",5,1,2,4,3,465,565,534,605,1,1,1
25109,"fixed","deadline",6,1,2,4,3,503,427,495,554,1,1,1
25109,"fixed","deadline",7,1,2,4,3,451,484,497,529,1,1,1
25109,"fixed","deadline",8,1,2,4,3,444,476,460,512,1,1,1
25109,"fixed","deadline",9,1,2,4,3,428,486,525,557,1,1,1
25109,"fixed","deadline",10,1,2,4,3,801,469,471,518,1,1,1
25109,"fixed","deadline",11,1,2,4,3,472,527,468,515,1,1,1
25109,"fixed","deadline",12,1,2,4,3,669,495,463,542,1,1,1
25109,"fixed","deadline",13,1,2,4,3,481,423,471,536,1,1,1
25109,"fixed","deadline",14,1,2,4,3,416,473,486,549,1,1,1
25109,"fixed","deadline",15,1,2,4,3,411,574,497,531,1,1,1
25109,"fixed","deadline",16,1,2,4,3,411,405,440,536,1,1,1
25109,"fixed","deadline",17,1,2,4,3,427,459,477,564,1,1,1
25109,"fixed","deadline",18,1,2,4,3,430,472,471,597,1,1,1
25109,"fixed","deadline",19,1,2,4,3,374,407,431,515,1,1,1
25109,"fixed","deadline",20,1,2,4,3,411,359,432,562,1,1,1
25109,"fixed","deadline",21,1,2,4,3,462,407,454,687,1,1,1
25109,"fixed","deadline",22,1,2,4,3,401,428,472,567,1,1,1
25109,"fixed","deadline",23,1,2,4,NA,492,498,457,NA,1,1,1
25109,"fixed","deadline",24,1,2,4,3,608,479,502,820,1,1,1
25109,"fixed","deadline",25,1,2,4,3,522,486,407,796,1,1,1
25109,"fixed","deadline",26,1,2,4,3,387,482,497,632,1,1,1
25109,"fixed","deadline",27,1,2,4,3,420,463,446,579,1,1,1
25109,"fixed","deadline",28,1,2,4,3,392,487,481,572,1,1,1
25109,"fixed","deadline",29,1,2,4,3,892,396,886,608,1,1,1
25196,"fixed","untimed",0,1,2,3,4,3859,5206,1451,1574,0,0,0
25196,"fixed","untimed",1,2,4,1,3,1033,1468,1139,935,3,3,3
25196,"fixed","untimed",2,2,4,1,3,1125,791,924,762,3,3,3
25196,"fixed","untimed",3,2,1,3,4,1301,801,940,699,1,1,1
25196,"fixed","untimed",4,2,4,1,3,652,641,985,741,3,3,3
25196,"fixed","untimed",5,4,1,3,2,753,845,720,830,4,4,4
25196,"fixed","untimed",6,2,4,1,3,494,1470,931,787,3,3,3
25196,"fixed","untimed",7,2,4,1,3,766,1047,770,581,3,3,3
25196,"fixed","untimed",8,2,4,1,3,682,720,897,587,3,3,3
25196,"fixed","untimed",9,2,4,1,3,806,783,875,723,3,3,3
25196,"fixed","deadline",0,1,4,2,NA,1711,716,657,NA,2,2,2
25196,"fixed","deadline",1,1,4,2,NA,646,903,737,NA,2,2,2
25196,"fixed","deadline",2,3,1,2,NA,1466,1286,1181,NA,2,2,2
25196,"fixed","deadline",3,4,2,1,NA,596,591,788,NA,4,4,4
25196,"fixed","deadline",4,3,1,4,2,621,720,642,870,3,3,3
25196,"fixed","deadline",5,4,2,1,3,649,854,753,696,4,4,4
25196,"fixed","deadline",6,2,4,1,3,472,636,705,679,3,3,3
25196,"fixed","deadline",7,2,4,1,3,563,628,817,617,3,3,3
25196,"fixed","deadline",8,1,4,2,3,677,598,685,712,2,2,2
25196,"fixed","deadline",9,2,4,1,3,466,592,744,714,3,3,3
25196,"fixed","deadline",10,2,4,1,3,505,663,720,761,3,3,3
25196,"fixed","deadline",11,2,4,1,NA,677,782,702,NA,3,3,3
25196,"fixed","deadline",12,2,1,4,3,633,1076,661,679,2,2,2
25196,"fixed","deadline",13,2,4,1,3,568,691,809,660,3,3,3
25196,"fixed","deadline",14,2,4,1,3,388,679,693,679,3,3,3
25196,"fixed","deadline",15,1,4,2,3,574,642,702,620,2,2,2
25196,"fixed","deadline",16,2,4,1,3,509,683,748,652,3,3,3
25196,"fixed","deadline",17,2,4,1,3,362,927,572,645,3,3,3
25196,"fixed","deadline",18,2,4,1,3,692,665,772,610,3,3,3
25196,"fixed","deadline",19,2,4,3,NA,790,600,669,NA,4,4,4
25196,"fixed","deadline",20,2,4,1,3,569,1187,1184,637,3,3,3
25196,"fixed","deadline",21,2,4,1,3,458,591,682,702,3,3,3
25196,"fixed","deadline",22,2,4,1,3,530,621,1038,699,3,3,3
25196,"fixed","deadline",23,2,4,1,3,732,636,783,651,3,3,3
25196,"fixed","deadline",24,2,4,1,3,452,574,711,1015,3,3,3
25196,"fixed","deadline",25,2,4,1,3,402,702,992,656,3,3,3
25196,"fixed","deadline",26,2,4,1,3,834,838,769,710,3,3,3
25196,"fixed","deadline",27,2,4,1,3,458,1170,781,668,3,3,3
25196,"fixed","deadline",28,2,4,1,3,615,627,553,714,3,3,3
25196,"fixed","deadline",29,2,4,1,3,430,649,790,516,3,3,3
25199,"fixed","untimed",0,1,2,3,4,4709.75,2286.26,1389.14,1446.12,0,0,0
25199,"fixed","untimed",1,1,2,3,4,2148.25,1413.74,1391.975,1337.98,0,0,0
25199,"fixed","untimed",2,1,2,4,3,1602.31,1212.415,1891.895,2106.725,1,1,1
25199,"fixed","untimed",3,1,2,4,3,1140.495,1431.905,2022.235,1247.075,1,1,1
25199,"fixed","untimed",4,1,2,3,4,1696.14,2551.12,1966.11,1443.51,0,0,0
25199,"fixed","untimed",5,1,2,4,3,2238.19,1406.6,1459.715,1833.37,1,1,1
25199,"fixed","untimed",6,1,2,3,4,1997.09,1533.075,1862.84,1572.175,0,0,0
25199,"fixed","untimed",7,1,2,3,4,1503.075,1562.65,1717.41,1449.37,0,0,0
25199,"fixed","untimed",8,1,2,3,4,2446.57,1775.58,1787.385,1749.505,0,0,0
25199,"fixed","untimed",9,1,2,3,4,1718.38,1992.58,1901.995,1781.67,0,0,0
25199,"fixed","deadline",0,NA,NA,NA,NA,NA,NA,NA,NA,3,0,6
25199,"fixed","deadline",1,1,2,3,NA,1037.65,1775.58,1772.295,NA,0,0,0
25199,"fixed","deadline",2,4,2,NA,NA,1344.99,1886.565,NA,NA,4.5,4,5
25199,"fixed","deadline",3,1,3,NA,NA,882.96,3886.875,NA,NA,1.5,1,2
25199,"fixed","deadline",4,3,1,NA,NA,1111.335,1385.775,NA,NA,2.5,2,3
25199,"fixed","deadline",5,2,1,NA,NA,1584.37,1449.36,NA,NA,1.5,1,2
25199,"fixed","deadline",6,4,1,2,NA,1415.305,1774.775,1704.58,NA,3,3,3
25199,"fixed","deadline",7,1,2,3,NA,1254.245,1495.105,1851.815,NA,0,0,0
25199,"fixed","deadline",8,1,2,4,NA,1365.595,1345.885,1415.91,NA,1,1,1
25199,"fixed","deadline",9,2,4,1,NA,1294.92,1390.65,1820.045,NA,3,3,3
25199,"fixed","deadline",10,1,2,NA,NA,1184.425,1487.665,NA,NA,0.5,0,1
25199,"fixed","deadline",11,4,1,2,NA,686.015,1307.39,1351.335,NA,3,3,3
25199,"fixed","deadline",12,4,1,NA,NA,940.075,3177.92,NA,NA,3.5,3,4
25199,"fixed","deadline",13,1,2,3,NA,1558.25,1256.895,1737.205,NA,0,0,0
25199,"fixed","deadline",14,4,1,NA,NA,1643,1503.12,NA,NA,3.5,3,4
25199,"fixed","deadline",15,1,2,NA,NA,1724.37,1447.025,NA,NA,0.5,0,1
25199,"fixed","deadline",16,1,2,NA,NA,1066.4,1124.02,NA,NA,0.5,0,1
25199,"fixed","deadline",17,3,4,NA,NA,937.015,1242.345,NA,NA,4.5,4,5
25199,"fixed","deadline",18,2,1,NA,NA,1125.88,1389.435,NA,NA,1.5,1,2
25199,"fixed","deadline",19,3,4,NA,NA,1058.775,1476.865,NA,NA,4.5,4,5
25199,"fixed","deadline",20,1,2,3,NA,969.675,1354.31,1405.755,NA,0,0,0
25199,"fixed","deadline",21,1,2,4,NA,965.365,1322.135,1557.98,NA,1,1,1
25199,"fixed","deadline",22,1,2,4,NA,1176.925,1391.84,1405.57,NA,1,1,1
25199,"fixed","deadline",23,1,2,4,NA,1338.23,1802.82,1296.165,NA,1,1,1
25199,"fixed","deadline",24,1,2,4,NA,1087.02,1380.47,1462.505,NA,1,1,1
25199,"fixed","deadline",25,1,2,4,NA,927.97,1384.115,1768.06,NA,1,1,1
25199,"fixed","deadline",26,2,1,4,NA,1380.265,1355.895,1477.06,NA,2,2,2
25199,"fixed","deadline",27,2,1,4,NA,1562.995,1231.275,1702.685,NA,2,2,2
25199,"fixed","deadline",28,1,2,4,NA,883.56,1372.635,1444.145,NA,1,1,1
25199,"fixed","deadline",29,1,2,4,NA,940.295,1366.84,1319.59,NA,1,1,1
25348,"fixed","untimed",0,1,4,2,3,3165.095,2951.025,5156.075,1099.915,2,2,2
25348,"fixed","untimed",1,1,3,4,2,908.06,986.38,618.67,742.43,2,2,2
25348,"fixed","untimed",2,1,3,4,2,512.905,995.43,797.735,675.19,2,2,2
25348,"fixed","untimed",3,1,3,4,2,458.9,928.45,562.985,574.695,2,2,2
25348,"fixed","untimed",4,2,1,3,4,531.37,467.415,746.095,789.865,1,1,1
25348,"fixed","untimed",5,2,1,3,4,479.78,733.91,751.02,491.96,1,1,1
25348,"fixed","untimed",6,2,1,3,4,677.695,423.295,702.94,671.49,1,1,1
25348,"fixed","untimed",7,2,1,3,4,703.185,429.05,783.935,530.81,1,1,1
25348,"fixed","untimed",8,2,1,3,4,563.16,417.25,765.455,452.525,1,1,1
25348,"fixed","untimed",9,2,1,3,4,784.35,391.105,427.78,406.42,1,1,1
25348,"fixed","deadline",0,2,1,3,4,1414.135,557.455,719,461.29,1,1,1
25348,"fixed","deadline",1,2,1,3,4,609.345,426.305,413.86,468.46,1,1,1
25348,"fixed","deadline",2,2,1,3,4,688.13,318.96,760.145,418.28,1,1,1
25348,"fixed","deadline",3,2,1,3,4,927.625,363.105,739.625,634.045,1,1,1
25348,"fixed","deadline",4,2,1,3,4,768.82,435.55,963.145,403.28,1,1,1
25348,"fixed","deadline",5,4,2,NA,NA,902.82,1382.995,NA,NA,4.5,4,5
25348,"fixed","deadline",6,2,1,3,NA,478.21,524.135,907.315,NA,1,1,1
25348,"fixed","deadline",7,2,1,3,4,703.13,486.09,771.285,499.235,1,1,1
25348,"fixed","deadline",8,2,1,3,4,403.6,443.735,713.715,511.825,1,1,1
25348,"fixed","deadline",9,2,1,3,4,874.395,407.61,791.67,487.14,1,1,1
25348,"fixed","deadline",10,2,1,3,4,359.335,326.915,683.22,475.555,1,1,1
25348,"fixed","deadline",11,2,1,3,4,833.19,904.51,998.935,451.525,1,1,1
25348,"fixed","deadline",12,2,1,3,NA,472.76,410.455,795.265,NA,1,1,1
25348,"fixed","deadline",13,2,1,3,4,741.685,401.185,754.345,376.39,1,1,1
25348,"fixed","deadline",14,2,1,3,4,413.38,346.095,616.715,468.455,1,1,1
25348,"fixed","deadline",15,2,1,3,4,349.56,378.86,726.34,392.96,1,1,1
25348,"fixed","deadline",16,2,1,3,4,355.63,334.63,714.1,353.975,1,1,1
25348,"fixed","deadline",17,2,1,3,4,307.15,378.655,716.025,412.01,1,1,1
25348,"fixed","deadline",18,2,1,3,4,492.775,385.87,960.14,375.48,1,1,1
25348,"fixed","deadline",19,2,1,3,4,345.475,357.55,1126.465,478.445,1,1,1
25348,"fixed","deadline",20,2,1,3,4,334.23,321.02,775.315,452.675,1,1,1
25348,"fixed","deadline",21,2,1,3,4,512.13,353.74,1074.755,484.185,1,1,1
25348,"fixed","deadline",22,2,1,3,NA,329.9,296.58,893.755,NA,1,1,1
25348,"fixed","deadline",23,2,1,3,4,477.095,298.915,751.015,635.15,1,1,1
25348,"fixed","deadline",24,2,1,3,4,249.61,321.64,1224.565,392.57,1,1,1
25348,"fixed","deadline",25,2,1,3,4,376.305,351.01,772.05,549.775,1,1,1
25348,"fixed","deadline",26,2,1,3,4,643.315,300.31,647.705,370.37,1,1,1
25348,"fixed","deadline",27,2,1,3,4,343.325,285.865,655.98,552.43,1,1,1
25348,"fixed","deadline",28,2,1,3,4,406.17,292.48,1220.13,428.085,1,1,1
25348,"fixed","deadline",29,2,1,3,4,342.76,304.92,673.475,354.5,1,1,1
25363,"fixed","untimed",0,1,2,3,4,NA,NA,NA,1775.21,0,0,0
25363,"fixed","untimed",1,1,3,2,4,1850.7,1817.245,1974.855,1571.74,1,1,1
25363,"fixed","untimed",2,3,2,1,4,1970.2,1625.56,1758.345,1398.565,3,3,3
25363,"fixed","untimed",3,2,1,3,4,1212.9,1564.155,1534.59,1510.405,1,1,1
25363,"fixed","untimed",4,1,3,2,4,2210.77,1356.195,1330.76,1875.31,1,1,1
25363,"fixed","untimed",5,1,4,2,3,1494.18,1747.68,1327.8,1453.475,2,2,2
25363,"fixed","untimed",6,3,1,2,4,807.6899999,1382.46,1694.9,1328.41,2,2,2
25363,"fixed","untimed",7,2,1,3,4,1769.47,2049.01,1733.57,1479.41,1,1,1
25363,"fixed","untimed",8,2,3,1,4,1273.685,1365.155,1455.15,1399.77,2,2,2
25363,"fixed","untimed",9,2,3,1,4,1517,1410.08,1324.16,1304.19,2,2,2
25363,"fixed","deadline",0,1,3,NA,NA,2199.015,1392.36,NA,NA,1.5,1,2
25363,"fixed","deadline",1,1,2,3,NA,1591.015,1757.355,1429.755,NA,0,0,0
25363,"fixed","deadline",2,2,NA,NA,NA,1120.365,NA,NA,NA,2.5,1,4
25363,"fixed","deadline",3,1,2,NA,NA,2655.22,1360.89,NA,NA,0.5,0,1
25363,"fixed","deadline",4,1,3,2,NA,954.075,1655.615,1366.81,NA,1,1,1
25363,"fixed","deadline",5,1,3,2,NA,865.405,1464.885,1411.225,NA,1,1,1
25363,"fixed","deadline",6,1,3,2,NA,1602.93,1407.105,1446.595,NA,1,1,1
25363,"fixed","deadline",7,1,2,3,NA,1196.565,1699.44,1363.34,NA,0,0,0
25363,"fixed","deadline",8,1,2,3,NA,1475.39,1433.345,1459.51,NA,0,0,0
25363,"fixed","deadline",9,1,3,2,NA,608.9949999,1430.03,1360.75,NA,1,1,1
25363,"fixed","deadline",10,1,2,3,NA,897.845,1431.2,1392.935,NA,0,0,0
25363,"fixed","deadline",11,1,3,2,NA,985.1299999,1415.265,1387.895,NA,1,1,1
25363,"fixed","deadline",12,1,3,2,NA,983.7799999,1271.35,1404.65,NA,1,1,1
25363,"fixed","deadline",13,1,3,2,4,504.31,1393.2,1395.545,1350.25,1,1,1
25363,"fixed","deadline",14,1,3,2,NA,763.855,1405.755,1558.73,NA,1,1,1
25363,"fixed","deadline",15,1,3,2,NA,1312.995,1368.825,1827.36,NA,1,1,1
25363,"fixed","deadline",16,1,3,2,NA,1090.425,1220.49,1383.48,NA,1,1,1
25363,"fixed","deadline",17,1,3,2,NA,1600.435,1337.81,1430.915,NA,1,1,1
25363,"fixed","deadline",18,1,3,2,NA,936.7750001,1395.695,1446.335,NA,1,1,1
25363,"fixed","deadline",19,1,3,2,NA,745.4550001,1873.065,1471.73,NA,1,1,1
25363,"fixed","deadline",20,1,3,2,NA,1066.35,1395.395,1403.175,NA,1,1,1
25363,"fixed","deadline",21,1,2,3,NA,766.0649999,1380.145,1519.64,NA,0,0,0
25363,"fixed","deadline",22,1,3,2,NA,1145.065,1445.65,1398.695,NA,1,1,1
25363,"fixed","deadline",23,1,3,2,NA,915.0700001,1890.72,1403.255,NA,1,1,1
25363,"fixed","deadline",24,1,3,2,NA,915.245,1415.275,1353.135,NA,1,1,1
25363,"fixed","deadline",25,1,2,3,NA,617.115,1340.3,1400.22,NA,0,0,0
25363,"fixed","deadline",26,1,3,2,4,660.5450001,1399.135,1403.105,1340.41,1,1,1
25363,"fixed","deadline",27,1,3,2,NA,985.1249999,1369.73,1300.84,NA,1,1,1
25363,"fixed","deadline",28,1,3,2,NA,736.1000001,1449.515,1431.735,NA,1,1,1
25363,"fixed","deadline",29,1,3,2,NA,1396.855,1459.26,1366.845,NA,1,1,1
25582,"fixed","untimed",0,2,4,1,3,4358,1397,1615,1196,3,3,3
25582,"fixed","untimed",1,4,1,3,2,1832,1391,823,796,4,4,4
25582,"fixed","untimed",2,1,3,4,2,946,591,711,1513,2,2,2
25582,"fixed","untimed",3,1,3,4,2,1240,566,708,744,2,2,2
25582,"fixed","untimed",4,2,1,3,4,1053,620,1085,658,1,1,1
25582,"fixed","untimed",5,4,3,1,2,1336,1046,643,455,5,5,5
25582,"fixed","untimed",6,2,1,3,4,1035,604,630,656,1,1,1
25582,"fixed","untimed",7,4,1,2,3,947,617,414,631,3,3,3
25582,"fixed","untimed",8,1,3,4,2,1635,694,468,569,2,2,2
25582,"fixed","untimed",9,4,2,1,3,1210,805,640,668,4,4,4
25582,"fixed","deadline",0,1,3,4,NA,748,389,812,NA,2,2,2
25582,"fixed","deadline",1,1,2,3,4,705,424,620,811,0,0,0
25582,"fixed","deadline",2,1,2,3,4,551,429,1004,867,0,0,0
25582,"fixed","deadline",3,1,2,3,4,433,506,566,475,0,0,0
25582,"fixed","deadline",4,1,2,3,4,800,430,547,732,0,0,0
25582,"fixed","deadline",5,1,2,3,4,446,363,490,894,0,0,0
25582,"fixed","deadline",6,1,2,3,4,569,424,590,527,0,0,0
25582,"fixed","deadline",7,1,2,3,4,308,251,494,417,0,0,0
25582,"fixed","deadline",8,1,2,3,4,550,333,553,500,0,0,0
25582,"fixed","deadline",9,1,2,3,4,607,374,523,498,0,0,0
25582,"fixed","deadline",10,1,2,3,4,406,423,486,389,0,0,0
25582,"fixed","deadline",11,1,2,3,4,583,327,393,425,0,0,0
25582,"fixed","deadline",12,1,2,3,4,361,372,633,490,0,0,0
25582,"fixed","deadline",13,1,2,3,4,556,334,434,416,0,0,0
25582,"fixed","deadline",14,1,2,3,4,351,357,713,896,0,0,0
25582,"fixed","deadline",15,4,1,2,3,586,881,350,673,3,3,3
25582,"fixed","deadline",16,1,2,3,4,643,397,377,387,0,0,0
25582,"fixed","deadline",17,1,2,3,4,348,340,642,426,0,0,0
25582,"fixed","deadline",18,1,2,3,4,383,263,508,548,0,0,0
25582,"fixed","deadline",19,1,2,3,4,383,327,373,398,0,0,0
25582,"fixed","deadline",20,1,2,3,4,433,276,432,378,0,0,0
25582,"fixed","deadline",21,1,2,3,4,444,382,385,348,0,0,0
25582,"fixed","deadline",22,1,2,3,4,390,391,567,624,0,0,0
25582,"fixed","deadline",23,1,2,3,4,413,359,414,1039,0,0,0
25582,"fixed","deadline",24,1,2,3,4,405,407,419,375,0,0,0
25582,"fixed","deadline",25,1,2,3,4,571,363,301,480,0,0,0
25582,"fixed","deadline",26,1,2,3,4,373,420,473,466,0,0,0
25582,"fixed","deadline",27,1,2,3,4,392,493,645,493,0,0,0
25582,"fixed","deadline",28,1,2,3,4,763,433,511,480,0,0,0
25582,"fixed","deadline",29,1,2,3,4,330,357,460,366,0,0,0
25595,"fixed","untimed",0,1,3,2,4,2800,1166,1069,893,1,1,1
25595,"fixed","untimed",1,1,3,2,4,968,715,685,858,1,1,1
25595,"fixed","untimed",2,1,3,4,2,727,883,844,1538,2,2,2
25595,"fixed","untimed",3,1,3,4,2,817,825,904,1097,2,2,2
25595,"fixed","untimed",4,1,3,4,2,869,729,769,693,2,2,2
25595,"fixed","untimed",5,1,3,4,2,621,640,667,582,2,2,2
25595,"fixed","untimed",6,1,3,4,2,630,577,614,610,2,2,2
25595,"fixed","untimed",7,1,3,4,2,701,559,600,624,2,2,2
25595,"fixed","untimed",8,1,3,4,2,417,552,580,522,2,2,2
25595,"fixed","untimed",9,1,3,4,2,457,581,592,556,2,2,2
25595,"fixed","deadline",0,1,3,4,2,739,483,531,601,2,2,2
25595,"fixed","deadline",1,1,3,4,2,516,518,587,507,2,2,2
25595,"fixed","deadline",2,1,2,4,3,524,469,599,589,1,1,1
25595,"fixed","deadline",3,1,2,3,4,551,650,547,522,0,0,0
25595,"fixed","deadline",4,1,2,4,3,464,437,615,483,1,1,1
25595,"fixed","deadline",5,1,2,4,3,422,874,798,524,1,1,1
25595,"fixed","deadline",6,1,2,4,3,473,844,616,466,1,1,1
25595,"fixed","deadline",7,1,2,4,3,419,518,554,530,1,1,1
25595,"fixed","deadline",8,1,2,4,3,386,1322,477,1152,1,1,1
25595,"fixed","deadline",9,1,2,4,3,492,415,648,530,1,1,1
25595,"fixed","deadline",10,1,2,4,NA,689,469,580,NA,1,1,1
25595,"fixed","deadline",11,1,2,3,4,464,459,530,639,0,0,0
25595,"fixed","deadline",12,1,2,3,4,925,603,514,615,0,0,0
25595,"fixed","deadline",13,1,2,3,NA,628,442,580,NA,0,0,0
25595,"fixed","deadline",14,1,2,3,4,517,457,627,636,0,0,0
25595,"fixed","deadline",15,1,2,3,4,451,686,634,557,0,0,0
25595,"fixed","deadline",16,1,2,3,4,781,615,509,564,0,0,0
25595,"fixed","deadline",17,1,2,3,4,529,847,543,577,0,0,0
25595,"fixed","deadline",18,1,2,3,4,803,511,554,565,0,0,0
25595,"fixed","deadline",19,1,2,3,4,471,498,505,579,0,0,0
25595,"fixed","deadline",20,1,2,4,3,473,909,488,521,1,1,1
25595,"fixed","deadline",21,1,2,3,4,663,554,592,613,0,0,0
25595,"fixed","deadline",22,1,2,4,3,961,488,522,781,1,1,1
25595,"fixed","deadline",23,1,2,3,4,421,516,445,597,0,0,0
25595,"fixed","deadline",24,1,2,3,4,355,512,479,563,0,0,0
25595,"fixed","deadline",25,1,2,3,4,353,453,492,892,0,0,0
25595,"fixed","deadline",26,1,2,3,4,496,455,802,584,0,0,0
25595,"fixed","deadline",27,1,2,3,4,509,408,429,511,0,0,0
25595,"fixed","deadline",28,1,2,3,4,385,447,568,504,0,0,0
25595,"fixed","deadline",29,1,2,3,4,505,450,549,513,0,0,0
25768,"fixed","untimed",0,1,2,3,NA,4615.745,4436.84,3109.385,NA,0,0,0
25768,"fixed","untimed",1,1,2,3,4,2693.145,2198.6,1647.49,1111.33,0,0,0
25768,"fixed","untimed",2,1,2,3,4,1532.645,1120.685,992.405,1095.265,0,0,0
25768,"fixed","untimed",3,1,2,3,4,1467.285,1048.65,1001.04,1237.56,0,0,0
25768,"fixed","untimed",4,1,2,3,4,2749.49,1419.34,2366.73,998.85,0,0,0
25768,"fixed","untimed",5,1,2,3,4,1234.055,795.76,852.96,1362.015,0,0,0
25768,"fixed","untimed",6,1,2,3,4,1344.305,1152.88,815.405,946.5,0,0,0
25768,"fixed","untimed",7,1,2,3,4,1407.325,1144.435,880.48,883.995,0,0,0
25768,"fixed","untimed",8,1,2,3,4,1063.31,1455.17,778.06,862.535,0,0,0
25768,"fixed","untimed",9,1,2,3,4,1185.28,1012.46,813.91,926.875,0,0,0
25768,"fixed","deadline",0,1,2,3,NA,1578.205,835.525,860.155,NA,0,0,0
25768,"fixed","deadline",1,1,2,3,NA,1294.98,800.805,753.4,NA,0,0,0
25768,"fixed","deadline",2,1,2,3,4,909.215,654.765,714.06,745.84,0,0,0
25768,"fixed","deadline",3,1,2,3,4,1265.615,732.255,704.08,735.045,0,0,0
25768,"fixed","deadline",4,1,2,3,4,787.655,900.395,681.49,638.58,0,0,0
25768,"fixed","deadline",5,1,2,3,4,626.26,715.82,629.86,636.355,0,0,0
25768,"fixed","deadline",6,1,2,3,4,693.13,661.005,596.35,720.265,0,0,0
25768,"fixed","deadline",7,1,2,3,NA,541.37,671.9,606.89,NA,0,0,0
25768,"fixed","deadline",8,1,2,3,NA,542.07,926.87,833.45,NA,0,0,0
25768,"fixed","deadline",9,1,2,3,4,605.55,647.5,597.74,671.97,0,0,0
25768,"fixed","deadline",10,1,2,3,4,1094.54,626.835,622.785,607.34,0,0,0
25768,"fixed","deadline",11,1,2,3,4,710.065,670,613.56,646.065,0,0,0
25768,"fixed","deadline",12,1,2,3,4,637.02,631.855,629.77,593.125,0,0,0
25768,"fixed","deadline",13,1,2,3,4,509.01,640.1,580.345,589.725,0,0,0
25768,"fixed","deadline",14,1,2,3,4,420.435,605.835,576.82,715.235,0,0,0
25768,"fixed","deadline",15,1,2,3,4,623.375,566.085,921.995,642.865,0,0,0
25768,"fixed","deadline",16,1,2,3,4,646.245,574.22,604.305,634.065,0,0,0
25768,"fixed","deadline",17,1,2,NA,NA,496.515,610.255,NA,NA,0.5,0,1
25768,"fixed","deadline",18,1,2,3,NA,534.555,680.365,799.545,NA,0,0,0
25768,"fixed","deadline",19,1,2,3,4,526.86,597.32,604.94,739.83,0,0,0
25768,"fixed","deadline",20,1,2,3,4,568.795,582.05,601.495,683.86,0,0,0
25768,"fixed","deadline",21,1,2,3,4,490.18,586.915,602.79,647.345,0,0,0
25768,"fixed","deadline",22,1,2,3,4,510.05,613.91,579.69,709.81,0,0,0
25768,"fixed","deadline",23,1,2,3,4,476.755,574.84,719.51,590.15,0,0,0
25768,"fixed","deadline",24,1,2,3,4,495.725,1014.84,620.755,572.21,0,0,0
25768,"fixed","deadline",25,1,2,3,4,557.19,605.34,1032.495,572.39,0,0,0
25768,"fixed","deadline",26,1,2,3,4,558.97,590.93,943.885,564.905,0,0,0
25768,"fixed","deadline",27,1,2,3,4,518.8,608.44,598.34,582.415,0,0,0
25768,"fixed","deadline",28,1,2,3,4,524.895,583.72,606.44,639.95,0,0,0
25768,"fixed","deadline",29,1,2,3,NA,1253.255,917.575,529.23,NA,0,0,0
25962,"fixed","untimed",0,1,3,2,4,1969.62,2999.35,1074.66,818.15,1,1,1
25962,"fixed","untimed",1,1,3,2,4,611.645,891.52,896.14,672.855,1,1,1
25962,"fixed","untimed",2,1,3,2,4,740.745,731.645,904.75,788.91,1,1,1
25962,"fixed","untimed",3,1,3,2,4,746.13,773.035,771.555,595.645,1,1,1
25962,"fixed","untimed",4,1,3,2,4,1302.835,799.305,663.65,834.21,1,1,1
25962,"fixed","untimed",5,1,3,2,4,682.225,552.35,628.115,573.22,1,1,1
25962,"fixed","untimed",6,1,3,2,4,435.105,499.315,513.025,567.65,1,1,1
25962,"fixed","untimed",7,1,3,2,4,489.165,485.05,595.965,1102.355,1,1,1
25962,"fixed","untimed",8,1,3,2,4,623.21,521.22,543.72,569.875,1,1,1
25962,"fixed","untimed",9,1,3,2,4,481.43,492.055,707.115,764.29,1,1,1
25962,"fixed","deadline",0,1,3,2,4,762.395,544.44,572.12,743.25,1,1,1
25962,"fixed","deadline",1,1,3,2,4,2125.355,606.15,535.27,451.06,1,1,1
25962,"fixed","deadline",2,1,3,2,4,668.79,612.71,911.72,737.76,1,1,1
25962,"fixed","deadline",3,1,3,2,4,685.645,737.44,856.725,651.045,1,1,1
25962,"fixed","deadline",4,1,3,2,4,1178.33,705.315,755.165,654.44,1,1,1
25962,"fixed","deadline",5,1,3,2,4,839.875,447.545,712.79,718.26,1,1,1
25962,"fixed","deadline",6,1,3,2,4,642.64,715.015,691.07,1025.545,1,1,1
25962,"fixed","deadline",7,1,3,2,NA,1979.13,880.755,666.185,NA,1,1,1
25962,"fixed","deadline",8,1,3,NA,NA,1514.325,698.36,NA,NA,1.5,1,2
25962,"fixed","deadline",9,1,3,2,4,961.175,496.085,499.07,579.39,1,1,1
25962,"fixed","deadline",10,1,3,2,NA,1012.765,711.195,565.475,NA,1,1,1
25962,"fixed","deadline",11,1,3,2,4,846.26,731.81,555.77,687.865,1,1,1
25962,"fixed","deadline",12,1,3,2,NA,805.94,1301.075,1293.505,NA,1,1,1
25962,"fixed","deadline",13,1,3,2,NA,1304.07,1333.25,1072.245,NA,1,1,1
25962,"fixed","deadline",14,1,3,2,4,1164.78,514.735,720.8,609.93,1,1,1
25962,"fixed","deadline",15,1,3,2,4,560.98,704.525,694.3,662.15,1,1,1
25962,"fixed","deadline",16,1,3,2,4,577.725,634.48,612.75,650.645,1,1,1
25962,"fixed","deadline",17,1,3,2,4,605.555,514.01,462.595,548.085,1,1,1
25962,"fixed","deadline",18,1,3,2,4,910.82,1210.305,962.975,984.08,1,1,1
25962,"fixed","deadline",19,1,3,2,4,868.79,542.535,699.695,624.565,1,1,1
25962,"fixed","deadline",20,1,3,2,4,648.46,675.475,623.95,777.875,1,1,1
25962,"fixed","deadline",21,1,3,2,4,707.745,637.155,594.005,624.11,1,1,1
25962,"fixed","deadline",22,1,3,2,4,674.95,812.63,688.685,609.52,1,1,1
25962,"fixed","deadline",23,1,3,2,4,499.82,449.47,570.48,536.61,1,1,1
25962,"fixed","deadline",24,1,3,2,4,631.765,476.935,616.365,528.55,1,1,1
25962,"fixed","deadline",25,1,3,2,4,1346.145,938.47,797.215,751.5,1,1,1
25962,"fixed","deadline",26,1,3,2,4,617.45,518.325,857.67,629.27,1,1,1
25962,"fixed","deadline",27,1,3,2,4,797.16,849.37,554.135,562.945,1,1,1
25962,"fixed","deadline",28,1,3,2,4,382.975,525.1,572.65,619.01,1,1,1
25962,"fixed","deadline",29,1,3,2,4,629.57,454.785,605.565,500.43,1,1,1
26002,"fixed","untimed",0,2,1,3,4,6115.28,6541.46,2043.68,1463.29,1,1,1
26002,"fixed","untimed",1,4,2,1,3,2177.135,3572.99,1551.755,1131.905,4,4,4
26002,"fixed","untimed",2,3,1,4,2,1337.81,1020.405,970.5050001,987.3249999,3,3,3
26002,"fixed","untimed",3,2,3,1,4,994.1100001,926.7449998,979.8299999,899.3000002,2,2,2
26002,"fixed","untimed",4,1,2,3,4,1689.98,1529.19,1732.36,1709.645,0,0,0
26002,"fixed","untimed",5,1,2,3,4,1140.37,1868.395,1070.995,1199.35,0,0,0
26002,"fixed","untimed",6,1,2,3,4,1405.885,1452.12,1028.19,1008.72,0,0,0
26002,"fixed","untimed",7,1,2,3,4,1845.96,935.7500002,1430.375,1112.425,0,0,0
26002,"fixed","untimed",8,1,2,3,4,955.0399999,957.3100002,1183.6,1045.57,0,0,0
26002,"fixed","untimed",9,1,3,2,4,1266.095,825.465,951.1250001,1081.635,1,1,1
26002,"fixed","deadline",0,1,NA,NA,NA,965.4899999,NA,NA,NA,1.5,0,3
26002,"fixed","deadline",1,1,2,3,NA,697.9950001,885.5599998,1126.875,NA,0,0,0
26002,"fixed","deadline",2,1,2,3,NA,781.9600001,1318.555,631.0749999,NA,0,0,0
26002,"fixed","deadline",3,1,2,3,NA,896.43,924.205,956.585,NA,0,0,0
26002,"fixed","deadline",4,1,2,3,4,904.9799999,931.6100001,658.5650002,1107.215,0,0,0
26002,"fixed","deadline",5,1,3,2,4,939.7200001,746.4600001,1062.18,853.5399998,1,1,1
26002,"fixed","deadline",6,1,3,2,4,888.8150002,1033.355,859.2399999,844.245,1,1,1
26002,"fixed","deadline",7,1,3,2,4,913.46,664.9200001,792.26,786.9500001,1,1,1
26002,"fixed","deadline",8,1,3,2,4,854.935,710.3900001,743.61,688.6150001,1,1,1
26002,"fixed","deadline",9,1,3,2,4,1009.745,814.7150001,771.1199999,719.9850001,1,1,1
26002,"fixed","deadline",10,1,3,2,4,715.5849999,666.5149999,608.8400001,820.505,1,1,1
26002,"fixed","deadline",11,1,3,2,4,555.375,685.4399999,720.3200001,662.6550001,1,1,1
26002,"fixed","deadline",12,1,3,2,4,600.3699999,696.1050001,656.4499999,710.9650001,1,1,1
26002,"fixed","deadline",13,1,3,2,4,441.815,737.765,662.8650001,699.5399999,1,1,1
26002,"fixed","deadline",14,1,3,2,4,1006.99,894.4349999,616.56,728.785,1,1,1
26002,"fixed","deadline",15,1,3,NA,NA,754.465,676.4199999,NA,NA,1.5,1,2
26002,"fixed","deadline",16,1,2,3,NA,894.3,745.6999999,708.5550001,NA,0,0,0
26002,"fixed","deadline",17,1,2,3,4,672.5900001,933.4549999,651.0299998,684.045,0,0,0
26002,"fixed","deadline",18,1,3,2,4,567.305,712.4600001,612.74,636.125,1,1,1
26002,"fixed","deadline",19,1,3,2,4,700.13,670.2150002,858.5999999,765.9149999,1,1,1
26002,"fixed","deadline",20,1,3,2,4,824.205,873.3750002,794.5050001,707.74,1,1,1
26002,"fixed","deadline",21,1,3,2,NA,760.095,649.2000001,729.325,NA,1,1,1
26002,"fixed","deadline",22,1,3,2,4,803.0899998,766.7299998,704.3049999,707.345,1,1,1
26002,"fixed","deadline",23,1,3,2,4,628.795,629.46,634.0249998,649.9000001,1,1,1
26002,"fixed","deadline",24,1,3,2,4,494.3049999,858.92,660.0449998,1245.215,1,1,1
26002,"fixed","deadline",25,1,3,2,4,544.8800002,695.4699999,698.66,753.975,1,1,1
26002,"fixed","deadline",26,1,3,2,4,670.5450001,775.53,684.2199999,693.8750001,1,1,1
26002,"fixed","deadline",27,1,3,2,4,487.09,705.9199999,642.4799999,814.825,1,1,1
26002,"fixed","deadline",28,1,3,2,4,552.07,938.29,650.2799999,723.6550001,1,1,1
26002,"fixed","deadline",29,1,3,2,4,535.2,667.0049999,621.765,808.6099999,1,1,1
26169,"fixed","untimed",0,2,1,NA,NA,1560.815,4698.025,NA,NA,1.5,1,2
26169,"fixed","untimed",1,1,2,3,4,2061.47,8366.535,2228.355,1928.41,0,0,0
26169,"fixed","untimed",2,1,2,3,4,2449.175,1733.055,1084.945,1105.6,0,0,0
26169,"fixed","untimed",3,1,2,3,4,1033.52,1588.66,856.485,1208.23,0,0,0
26169,"fixed","untimed",4,4,1,2,3,2434.32,1299.92,973.18,753.4,3,3,3
26169,"fixed","untimed",5,1,4,3,2,2967.18,1029.88,1166.13,1291.135,3,3,3
26169,"fixed","untimed",6,1,4,2,3,8573.41,1060.255,1139.6,889.62,2,2,2
26169,"fixed","untimed",7,1,4,2,3,4786.48,1007.56,936.375,760.04,2,2,2
26169,"fixed","untimed",8,1,4,3,2,2832.355,1299.06,1165.06,1392.77,3,3,3
26169,"fixed","untimed",9,1,2,4,3,1958.36,1297.51,867.54,999.855,1,1,1
26169,"fixed","deadline",0,1,4,NA,NA,1214.56,1239.84,NA,NA,2.5,2,3
26169,"fixed","deadline",1,2,1,4,3,834.47,760.665,623.065,712.65,2,2,2
26169,"fixed","deadline",2,1,4,2,NA,587.77,610.52,608.795,NA,2,2,2
26169,"fixed","deadline",3,3,1,4,NA,618.67,777.365,659.3,NA,3,3,3
26169,"fixed","deadline",4,1,2,4,NA,620.83,750.46,808.07,NA,1,1,1
26169,"fixed","deadline",5,1,2,3,NA,671.97,997.205,647.67,NA,0,0,0
26169,"fixed","deadline",6,1,2,4,NA,818.235,839.36,761.86,NA,1,1,1
26169,"fixed","deadline",7,1,2,3,NA,894.225,819.12,658.925,NA,0,0,0
26169,"fixed","deadline",8,1,2,3,NA,624.265,830.275,1041.755,NA,0,0,0
26169,"fixed","deadline",9,1,2,3,4,737.73,694.835,710.435,746.07,0,0,0
26169,"fixed","deadline",10,1,2,3,4,640.965,659.73,677.925,466.2,0,0,0
26169,"fixed","deadline",11,1,2,3,4,671.655,736.11,1046.495,672.335,0,0,0
26169,"fixed","deadline",12,1,2,3,4,626.095,682.925,575.34,698.37,0,0,0
26169,"fixed","deadline",13,1,2,3,4,625.21,657.865,545.495,532.695,0,0,0
26169,"fixed","deadline",14,1,2,3,4,536.465,661.735,583.36,556.64,0,0,0
26169,"fixed","deadline",15,1,2,3,4,609.17,628.665,760.42,486.085,0,0,0
26169,"fixed","deadline",16,1,2,3,4,477.79,605.675,588.815,737.44,0,0,0
26169,"fixed","deadline",17,1,2,3,4,591.85,582.255,586.505,666.115,0,0,0
26169,"fixed","deadline",18,1,2,3,4,596.285,662.72,459.825,564.725,0,0,0
26169,"fixed","deadline",19,1,2,3,4,397.28,634.79,470.585,714.48,0,0,0
26169,"fixed","deadline",20,1,2,3,4,576.755,644.985,466.845,717.48,0,0,0
26169,"fixed","deadline",21,1,2,3,NA,445.28,479.485,784.945,NA,0,0,0
26169,"fixed","deadline",22,1,2,3,4,902.2,675.835,523.645,931.65,0,0,0
26169,"fixed","deadline",23,1,2,3,4,454.9,670.725,522.16,642.09,0,0,0
26169,"fixed","deadline",24,1,2,3,4,517.825,714.665,614.215,641.265,0,0,0
26169,"fixed","deadline",25,1,2,3,4,591.745,783.23,575.065,597.165,0,0,0
26169,"fixed","deadline",26,1,2,3,4,638.635,669.72,481.215,602.07,0,0,0
26169,"fixed","deadline",27,1,2,3,4,590.395,501.49,582.105,757.38,0,0,0
26169,"fixed","deadline",28,1,2,3,4,745.9,688.72,494.82,532.215,0,0,0
26169,"fixed","deadline",29,1,2,3,4,1069.56,584.755,470.855,478.09,0,0,0
26195,"fixed","untimed",0,1,2,4,3,4574.79,1926.71,2612.285,1380.075,1,1,1
26195,"fixed","untimed",1,1,2,3,4,828.305,1029.555,845.5,541.475,0,0,0
26195,"fixed","untimed",2,1,2,3,4,579.84,705.115,742.82,507.805,0,0,0
26195,"fixed","untimed",3,1,2,3,4,661.03,452.28,418.47,486.9,0,0,0
26195,"fixed","untimed",4,1,2,3,4,705.38,778.17,620.55,1166.22,0,0,0
26195,"fixed","untimed",5,1,2,3,4,478.08,481.51,472.17,538.555,0,0,0
26195,"fixed","untimed",6,1,2,3,4,582.75,519.455,556.815,513.74,0,0,0
26195,"fixed","untimed",7,1,2,3,4,444.26,407.35,479.8,357.03,0,0,0
26195,"fixed","untimed",8,1,2,3,4,732.49,428.395,491.28,404.69,0,0,0
26195,"fixed","untimed",9,1,2,3,4,452.7,308.815,381.955,296.485,0,0,0
26195,"fixed","deadline",0,1,2,3,4,903.605,332.535,326.885,319.865,0,0,0
26195,"fixed","deadline",1,1,2,3,4,451.02,352.785,391.595,249.86,0,0,0
26195,"fixed","deadline",2,1,2,3,4,384.73,375.33,343.425,364.53,0,0,0
26195,"fixed","deadline",3,1,2,3,4,419.025,374.4,439.37,337.565,0,0,0
26195,"fixed","deadline",4,1,2,3,4,391.45,337.87,409.905,278.05,0,0,0
26195,"fixed","deadline",5,1,2,3,4,571.765,314.55,398.125,342.82,0,0,0
26195,"fixed","deadline",6,1,2,3,4,452.705,395.165,403.39,252.415,0,0,0
26195,"fixed","deadline",7,1,2,3,4,482.33,346.02,370.715,451.095,0,0,0
26195,"fixed","deadline",8,1,2,3,4,413.69,311.33,354.265,378.185,0,0,0
26195,"fixed","deadline",9,1,2,3,4,362.51,316.16,370.895,363.78,0,0,0
26195,"fixed","deadline",10,1,2,3,4,375.61,290.52,393.75,422.805,0,0,0
26195,"fixed","deadline",11,1,2,3,4,700.075,348.17,260.395,459.295,0,0,0
26195,"fixed","deadline",12,1,2,3,NA,499.735,327.65,394.56,NA,0,0,0
26195,"fixed","deadline",13,1,2,3,4,500.365,357.8,372.6,686.17,0,0,0
26195,"fixed","deadline",14,1,2,3,4,475.575,275.515,392.635,468.265,0,0,0
26195,"fixed","deadline",15,1,2,3,4,352.385,290.935,354.975,414.19,0,0,0
26195,"fixed","deadline",16,1,2,3,4,539.225,334.44,381.36,372.37,0,0,0
26195,"fixed","deadline",17,1,2,3,4,352.71,335.96,395.965,366.29,0,0,0
26195,"fixed","deadline",18,1,2,3,4,501.51,298.765,386.5,347.67,0,0,0
26195,"fixed","deadline",19,1,2,3,4,519.23,318.285,332.38,469.795,0,0,0
26195,"fixed","deadline",20,1,2,3,4,719.895,254.385,388.935,363.685,0,0,0
26195,"fixed","deadline",21,1,2,3,4,624.915,325.485,263.63,349.435,0,0,0
26195,"fixed","deadline",22,1,2,3,4,490.365,331.255,376.91,376.425,0,0,0
26195,"fixed","deadline",23,2,1,3,4,600.165,400.505,478.485,549.655,1,1,1
26195,"fixed","deadline",24,1,2,3,4,436.915,467.12,394.96,351.87,0,0,0
26195,"fixed","deadline",25,1,2,3,4,451.18,322.785,348.26,318.945,0,0,0
26195,"fixed","deadline",26,1,2,3,4,539.12,375.485,421.5,269.125,0,0,0
26195,"fixed","deadline",27,1,2,3,4,444.42,321.365,427.265,563.35,0,0,0
26195,"fixed","deadline",28,1,2,3,4,438.075,353.89,478.44,359.775,0,0,0
26195,"fixed","deadline",29,1,2,3,4,583.985,400.195,428.305,441.16,0,0,0
26206,"fixed","untimed",0,1,3,2,4,5732.26,7742.6,1501.415,1921.26,1,1,1
26206,"fixed","untimed",1,1,2,3,4,1340.19,1085.65,2754.77,1176.05,0,0,0
26206,"fixed","untimed",2,1,2,4,3,1420.29,1377.59,1438.07,2822.945,1,1,1
26206,"fixed","untimed",3,3,1,2,4,998.7600001,2171.05,1033.92,1305.695,2,2,2
26206,"fixed","untimed",4,4,2,1,3,762.9799999,1146.895,937.4800001,2374.535,4,4,4
26206,"fixed","untimed",5,4,2,1,3,881.365,1101.34,1944.455,998.23,4,4,4
26206,"fixed","untimed",6,4,2,3,1,700.3600001,1062.48,1008.23,1825.02,5,5,5
26206,"fixed","untimed",7,4,2,1,3,563.105,937.6549998,1107.735,1070.425,4,4,4
26206,"fixed","untimed",8,4,2,1,3,1227.015,889.3900001,946.6899999,811.945,4,4,4
26206,"fixed","untimed",9,3,1,2,4,602.4,1099.63,1004.815,979.4800002,2,2,2
26206,"fixed","deadline",0,1,2,NA,NA,3051.78,1068.655,NA,NA,0.5,0,1
26206,"fixed","deadline",1,1,2,NA,NA,1856.865,1249.2,NA,NA,0.5,0,1
26206,"fixed","deadline",2,3,4,2,1,454.9,934.8250001,1614.425,830.7950001,5,5,5
26206,"fixed","deadline",3,3,2,1,4,694.3699999,898.9200001,947.405,1050.755,3,3,3
26206,"fixed","deadline",4,3,2,1,4,782.7050001,1128.435,976.055,1298.73,3,3,3
26206,"fixed","deadline",5,2,1,3,4,610.47,1443.63,951.655,1020.04,1,1,1
26206,"fixed","deadline",6,4,2,1,NA,421.7699999,1005.79,914.7050001,NA,4,4,4
26206,"fixed","deadline",7,3,4,2,NA,741.1149999,1116.535,1014.34,NA,5,5,5
26206,"fixed","deadline",8,3,1,2,4,816.93,963.485,842.2900001,975.0599999,2,2,2
26206,"fixed","deadline",9,4,3,1,2,646.9399999,1193.775,1087.94,1061.875,5,5,5
26206,"fixed","deadline",10,3,1,2,4,901.755,965.785,820.88,891.915,2,2,2
26206,"fixed","deadline",11,3,1,2,4,982.205,890.5200001,893.6999999,732.6999998,2,2,2
26206,"fixed","deadline",12,3,NA,NA,NA,1937.73,NA,NA,NA,3.5,2,5
26206,"fixed","deadline",13,3,4,2,1,627.1499998,951.6050001,823.7000001,1129.72,5,5,5
26206,"fixed","deadline",14,3,1,2,4,607.7699999,848.5900001,960.98,995.9,2,2,2
26206,"fixed","deadline",15,1,2,4,3,718.8649999,1147.48,1056.085,1077.79,1,1,1
26206,"fixed","deadline",16,3,4,2,NA,1062.05,1437.19,1003.605,NA,5,5,5
26206,"fixed","deadline",17,2,1,3,4,577.175,1139.015,959.8949999,1353.365,1,1,1
26206,"fixed","deadline",18,3,1,2,4,648.33,906.245,811.1750002,983.7400001,2,2,2
26206,"fixed","deadline",19,4,1,3,2,594.0449999,1197.955,767.0150001,1047.225,4,4,4
26206,"fixed","deadline",20,2,1,3,NA,569.1799999,2415.585,912.5699999,NA,1,1,1
26206,"fixed","deadline",21,4,3,2,1,750.64,1050.665,1101.905,931.3049999,6,6,6
26206,"fixed","deadline",22,3,1,2,4,670.5099999,1156.29,710.43,879.7300002,2,2,2
26206,"fixed","deadline",23,3,4,2,1,830.5899999,915.6250001,939.43,962.695,5,5,5
26206,"fixed","deadline",24,3,1,2,4,1099.78,1067.94,821.765,730.395,2,2,2
26206,"fixed","deadline",25,4,2,3,1,514.6949999,1292.16,1089.415,943.3850001,5,5,5
26206,"fixed","deadline",26,3,1,2,4,463.525,870.4550001,718.5200001,1025.04,2,2,2
26206,"fixed","deadline",27,3,1,2,4,855.5049999,1222.42,749.6549999,859.8100001,2,2,2
26206,"fixed","deadline",28,4,3,1,2,928.295,779.8249999,774.55,669.8350001,5,5,5
26206,"fixed","deadline",29,3,4,2,1,850.1300002,823.9750001,652.88,899.425,5,5,5
26219,"fixed","untimed",0,1,2,4,3,1668,1528,721,778,1,1,1
26219,"fixed","untimed",1,1,2,4,3,1442,1138,579,656,1,1,1
26219,"fixed","untimed",2,1,2,4,3,1298,762,1253,653,1,1,1
26219,"fixed","untimed",3,1,2,3,4,785,624,1012,550,0,0,0
26219,"fixed","untimed",4,1,2,3,4,1544,942,856,491,0,0,0
26219,"fixed","untimed",5,1,2,3,4,815,587,761,551,0,0,0
26219,"fixed","untimed",6,1,2,3,4,1370,623,661,531,0,0,0
26219,"fixed","untimed",7,1,2,3,4,816,560,999,468,0,0,0
26219,"fixed","untimed",8,1,2,3,4,579,567,609,586,0,0,0
26219,"fixed","untimed",9,1,2,3,4,762,588,656,581,0,0,0
26219,"fixed","deadline",0,1,2,3,4,1658,596,822,548,0,0,0
26219,"fixed","deadline",1,1,2,3,4,678,569,685,584,0,0,0
26219,"fixed","deadline",2,1,2,3,4,632,592,999,540,0,0,0
26219,"fixed","deadline",3,1,2,3,4,677,690,673,627,0,0,0
26219,"fixed","deadline",4,1,2,3,4,808,575,782,543,0,0,0
26219,"fixed","deadline",5,1,2,3,4,1251,907,803,587,0,0,0
26219,"fixed","deadline",6,1,2,3,4,1138,870,798,543,0,0,0
26219,"fixed","deadline",7,1,2,3,4,958,529,669,558,0,0,0
26219,"fixed","deadline",8,1,2,3,4,513,795,1041,587,0,0,0
26219,"fixed","deadline",9,1,2,3,4,811,839,625,566,0,0,0
26219,"fixed","deadline",10,1,2,3,4,950,611,708,688,0,0,0
26219,"fixed","deadline",11,1,2,3,4,599,549,641,582,0,0,0
26219,"fixed","deadline",12,1,2,3,4,330,823,567,549,0,0,0
26219,"fixed","deadline",13,1,2,3,4,456,586,565,606,0,0,0
26219,"fixed","deadline",14,1,2,3,4,366,635,594,576,0,0,0
26219,"fixed","deadline",15,1,2,3,4,1278,925,1211,588,0,0,0
26219,"fixed","deadline",16,1,2,3,4,837,1133,768,598,0,0,0
26219,"fixed","deadline",17,1,2,3,4,449,484,821,605,0,0,0
26219,"fixed","deadline",18,1,2,3,4,651,522,845,619,0,0,0
26219,"fixed","deadline",19,1,2,3,4,587,543,1286,528,0,0,0
26219,"fixed","deadline",20,1,2,3,4,866,798,545,889,0,0,0
26219,"fixed","deadline",21,1,2,3,4,797,480,572,603,0,0,0
26219,"fixed","deadline",22,1,2,3,4,825,583,871,623,0,0,0
26219,"fixed","deadline",23,1,2,3,4,686,883,898,646,0,0,0
26219,"fixed","deadline",24,1,2,3,4,847,717,658,607,0,0,0
26219,"fixed","deadline",25,1,2,3,4,827,550,803,833,0,0,0
26219,"fixed","deadline",26,1,2,3,4,589,581,1046,567,0,0,0
26219,"fixed","deadline",27,1,2,3,4,413,578,649,744,0,0,0
26219,"fixed","deadline",28,1,2,3,4,430,667,610,591,0,0,0
26219,"fixed","deadline",29,1,2,3,4,453,533,878,593,0,0,0
26230,"fixed","untimed",0,1,2,4,3,4968.91,2689.75,1641.73,1482.535,1,1,1
26230,"fixed","untimed",1,1,2,4,3,1425.27,1171.51,1391.115,1263.33,1,1,1
26230,"fixed","untimed",2,1,2,4,3,1018.55,1255.055,1257.975,1501.61,1,1,1
26230,"fixed","untimed",3,1,2,4,3,4457.47,1270.34,1149.265,1249.845,1,1,1
26230,"fixed","untimed",4,1,2,3,4,1349.85,1274.385,1365.25,1169.48,0,0,0
26230,"fixed","untimed",5,1,2,4,3,1234.36,1165.745,1126.88,1159.565,1,1,1
26230,"fixed","untimed",6,1,2,4,3,818.235,1866.425,1714.88,1113.075,1,1,1
26230,"fixed","untimed",7,1,2,3,4,734.97,1182.14,1255.635,1159.11,0,0,0
26230,"fixed","untimed",8,1,2,3,4,718.5500001,1120.745,1419.635,1197.67,0,0,0
26230,"fixed","untimed",9,1,2,3,4,1363.47,1680.36,1267.16,1296.65,0,0,0
26230,"fixed","deadline",0,1,2,3,NA,1007.22,1752.37,1171.53,NA,0,0,0
26230,"fixed","deadline",1,1,2,3,NA,763.635,1606.625,1117.045,NA,0,0,0
26230,"fixed","deadline",2,1,2,3,NA,709.99,1725.77,1214.915,NA,0,0,0
26230,"fixed","deadline",3,1,2,3,NA,622.83,1743.4,1145.885,NA,0,0,0
26230,"fixed","deadline",4,1,2,3,NA,756.85,1559.97,1071.915,NA,0,0,0
26230,"fixed","deadline",5,1,2,3,NA,687.075,1743.42,1682.505,NA,0,0,0
26230,"fixed","deadline",6,1,2,3,NA,809.58,1675.44,1072.055,NA,0,0,0
26230,"fixed","deadline",7,1,2,3,4,619.585,1090.46,1080.95,1079.34,0,0,0
26230,"fixed","deadline",8,1,2,3,NA,621.8399999,1806.205,1128.465,NA,0,0,0
26230,"fixed","deadline",9,1,2,3,NA,810.7349999,1163.495,1575.54,NA,0,0,0
26230,"fixed","deadline",10,1,2,3,NA,664.185,1511.565,1153.685,NA,0,0,0
26230,"fixed","deadline",11,1,2,3,NA,632.45,1540.125,1052.77,NA,0,0,0
26230,"fixed","deadline",12,1,2,3,NA,734.815,1550.79,1190.28,NA,0,0,0
26230,"fixed","deadline",13,1,2,3,NA,698.64,1497.43,1193.025,NA,0,0,0
26230,"fixed","deadline",14,1,2,3,NA,611.655,1385.925,1100.505,NA,0,0,0
26230,"fixed","deadline",15,1,2,3,NA,597.9200001,1615.385,1571.875,NA,0,0,0
26230,"fixed","deadline",16,1,2,3,NA,921.26,1434.91,1092.82,NA,0,0,0
26230,"fixed","deadline",17,1,2,3,NA,575.475,1435.21,1634.295,NA,0,0,0
26230,"fixed","deadline",18,1,2,3,NA,758.22,1529.6,1126.94,NA,0,0,0
26230,"fixed","deadline",19,1,2,3,NA,596.71,1109.625,1135.335,NA,0,0,0
26230,"fixed","deadline",20,1,2,3,NA,625.505,1096.23,1546.42,NA,0,0,0
26230,"fixed","deadline",21,1,2,3,NA,574.2800001,1459.15,1191.335,NA,0,0,0
26230,"fixed","deadline",22,1,4,2,NA,582.575,1113.46,2630.185,NA,2,2,2
26230,"fixed","deadline",23,1,2,3,4,540.32,1139.81,1097.34,1449.145,0,0,0
26230,"fixed","deadline",24,1,2,3,NA,708.755,1393.705,1654.545,NA,0,0,0
26230,"fixed","deadline",25,1,2,3,NA,616.685,1077.43,1489.095,NA,0,0,0
26230,"fixed","deadline",26,1,2,3,NA,648.775,1089.835,1132.63,NA,0,0,0
26230,"fixed","deadline",27,1,2,3,NA,614.6999999,1065.525,1131.02,NA,0,0,0
26230,"fixed","deadline",28,1,2,3,NA,668.8249999,1533.72,1162.345,NA,0,0,0
26230,"fixed","deadline",29,1,2,3,NA,547.9649999,1468.045,1640.33,NA,0,0,0
26267,"fixed","untimed",0,1,2,3,NA,7167.205,2500.31,8548.605,NA,0,0,0
26267,"fixed","untimed",1,1,2,3,4,2258.18,1197.11,1165.38,841.88,0,0,0
26267,"fixed","untimed",2,1,2,3,4,1146.675,764.42,833.25,704.825,0,0,0
26267,"fixed","untimed",3,1,2,3,4,874.665,988.135,802.01,860.475,0,0,0
26267,"fixed","untimed",4,1,2,3,4,1029.015,1148.24,637.115,821.205,0,0,0
26267,"fixed","untimed",5,1,2,3,4,755.92,634.63,748.62,837.625,0,0,0
26267,"fixed","untimed",6,1,2,3,4,634.795,717.125,578.275,602.395,0,0,0
26267,"fixed","untimed",7,1,2,3,4,1034.945,852.23,714.365,771.97,0,0,0
26267,"fixed","untimed",8,1,2,3,4,506.505,804.64,621.465,520.955,0,0,0
26267,"fixed","untimed",9,1,2,3,4,650.695,665.09,579.525,584.38,0,0,0
26267,"fixed","deadline",0,1,2,3,4,1756.205,658.58,548.9,636.43,0,0,0
26267,"fixed","deadline",1,1,2,3,4,676.605,580.99,629.515,610.375,0,0,0
26267,"fixed","deadline",2,1,2,3,4,460.47,673.055,538.225,569.77,0,0,0
26267,"fixed","deadline",3,1,2,3,4,1266.77,653.29,571.71,684.87,0,0,0
26267,"fixed","deadline",4,1,2,NA,NA,865.96,579.06,NA,NA,0.5,0,1
26267,"fixed","deadline",5,1,2,3,NA,701.22,747.49,714.04,NA,0,0,0
26267,"fixed","deadline",6,1,2,3,4,1042.115,554.8,522.325,795.535,0,0,0
26267,"fixed","deadline",7,1,4,2,NA,658.615,619.785,2262.935,NA,2,2,2
26267,"fixed","deadline",8,1,2,3,4,738.24,644.44,629.345,763.405,0,0,0
26267,"fixed","deadline",9,1,2,3,4,516.705,803.34,713.495,662.245,0,0,0
26267,"fixed","deadline",10,1,2,3,4,700.775,806.73,577.32,704.715,0,0,0
26267,"fixed","deadline",11,1,2,3,4,611.775,1203.395,689.635,835.345,0,0,0
26267,"fixed","deadline",12,1,2,3,4,660.38,756.525,781.36,738.46,0,0,0
26267,"fixed","deadline",13,1,4,2,3,561.445,697.705,974.36,740.425,2,2,2
26267,"fixed","deadline",14,1,4,2,3,635.81,596.555,902.86,571.685,2,2,2
26267,"fixed","deadline",15,1,4,2,3,460.5,819.985,919.555,757.295,2,2,2
26267,"fixed","deadline",16,3,2,1,4,608.125,737.805,678.485,703.92,3,3,3
26267,"fixed","deadline",17,1,4,2,3,564.56,555.985,664.17,650.91,2,2,2
26267,"fixed","deadline",18,3,2,1,4,570.805,818.38,794.52,741.005,3,3,3
26267,"fixed","deadline",19,1,4,2,3,586.67,853.235,1261.715,532.795,2,2,2
26267,"fixed","deadline",20,1,4,2,3,713.24,615.125,959.36,611.27,2,2,2
26267,"fixed","deadline",21,1,4,2,3,764.825,968.355,822.89,624.745,2,2,2
26267,"fixed","deadline",22,1,4,2,3,554.435,572.235,602.625,735.405,2,2,2
26267,"fixed","deadline",23,1,4,2,3,641.625,585.085,664.53,577.155,2,2,2
26267,"fixed","deadline",24,1,4,2,3,674.625,705.575,674.67,624.495,2,2,2
26267,"fixed","deadline",25,1,4,2,3,500.49,620.83,615.565,530.995,2,2,2
26267,"fixed","deadline",26,1,4,2,3,474.81,546.825,519.51,725.05,2,2,2
26267,"fixed","deadline",27,1,4,2,3,721.53,625.135,690.27,563.935,2,2,2
26267,"fixed","deadline",28,1,4,2,3,530.485,571.66,607.735,524.17,2,2,2
26267,"fixed","deadline",29,1,4,2,3,543.61,609.33,544.83,583.32,2,2,2
26268,"fixed","untimed",0,2,1,NA,NA,2578.055,3008.535,NA,NA,1.5,1,2
26268,"fixed","untimed",1,1,3,4,NA,1999.43,2717.63,1540.77,NA,2,2,2
26268,"fixed","untimed",2,1,2,3,4,2146.98,2253.38,2059.565,2216.17,0,0,0
26268,"fixed","untimed",3,1,2,3,4,972.6,1381.09,1500.43,880.18,0,0,0
