"subject","condition","phase","trial","selected_difficulty_1","selected_difficulty_2","selected_difficulty_3","selected_difficulty_4","rt_1","rt_2","rt_3","rt_4","avgD","minD","maxD"
27082,"fixed","untimed",0,4,2,1,3,4782,1398,1800,1042,4,4,4
27082,"fixed","untimed",1,4,2,3,1,967,922,964,856,5,5,5
27082,"fixed","untimed",2,4,2,3,1,1044,836,700,772,5,5,5
27082,"fixed","untimed",3,4,2,3,1,787,828,779,881,5,5,5
27082,"fixed","untimed",4,4,2,3,1,666,762,790,934,5,5,5
27082,"fixed","untimed",5,3,2,4,1,1566,803,828,4897,4,4,4
27082,"fixed","untimed",6,4,2,3,1,867,872,808,594,5,5,5
27082,"fixed","untimed",7,4,2,3,1,724,794,590,889,5,5,5
27082,"fixed","untimed",8,4,2,3,1,948,792,730,728,5,5,5
27082,"fixed","untimed",9,1,4,2,3,773,825,771,711,2,2,2
27082,"fixed","deadline",0,1,4,2,NA,1517,782,816,NA,2,2,2
27082,"fixed","deadline",1,3,1,4,2,564,665,497,303,3,3,3
27082,"fixed","deadline",2,4,2,NA,NA,532,603,NA,NA,4.5,4,5
27082,"fixed","deadline",3,4,1,3,NA,704,650,738,NA,4,4,4
27082,"fixed","deadline",4,4,2,3,NA,778,653,1121,NA,5,5,5
27082,"fixed","deadline",5,4,1,NA,NA,596,1041,NA,NA,3.5,3,4
27082,"fixed","deadline",6,4,NA,NA,NA,1027,NA,NA,NA,4.5,3,6
27082,"fixed","deadline",7,1,2,3,4,817,841,674,684,0,0,0
27082,"fixed","deadline",8,4,1,3,2,986,475,664,424,4,4,4
27082,"fixed","deadline",9,4,3,2,1,607,587,782,982,6,6,6
27082,"fixed","deadline",10,4,2,3,1,1026,764,630,711,5,5,5
27082,"fixed","deadline",11,4,2,3,1,582,580,324,426,5,5,5
27082,"fixed","deadline",12,4,2,3,1,675,693,356,520,5,5,5
27082,"fixed","deadline",13,4,2,3,1,552,615,364,472,5,5,5
27082,"fixed","deadline",14,4,2,3,1,558,499,613,507,5,5,5
27082,"fixed","deadline",15,4,1,2,3,613,493,864,358,3,3,3
27082,"fixed","deadline",16,4,NA,NA,NA,488,NA,NA,NA,4.5,3,6
27082,"fixed","deadline",17,4,2,3,NA,994,830,699,NA,5,5,5
27082,"fixed","deadline",18,4,1,3,NA,770,554,755,NA,4,4,4
27082,"fixed","deadline",19,4,1,NA,NA,687,684,NA,NA,3.5,3,4
27082,"fixed","deadline",20,1,4,NA,NA,1287,890,NA,NA,2.5,2,3
27082,"fixed","deadline",21,1,2,NA,NA,962,786,NA,NA,0.5,0,1
27082,"fixed","deadline",22,4,2,NA,NA,1116,723,NA,NA,4.5,4,5
27082,"fixed","deadline",23,4,1,3,NA,945,1047,777,NA,4,4,4
27082,"fixed","deadline",24,1,2,NA,NA,1032,906,NA,NA,0.5,0,1
27082,"fixed","deadline",25,4,1,2,3,495,605,769,513,3,3,3
27082,"fixed","deadline",26,4,1,2,3,423,673,579,615,3,3,3
27082,"fixed","deadline",27,4,1,3,2,534,758,918,730,4,4,4
27082,"fixed","deadline",28,NA,NA,NA,NA,NA,NA,NA,NA,3,0,6
27082,"fixed","deadline",29,4,2,NA,NA,1174,781,NA,NA,4.5,4,5
27088,"fixed","untimed",0,4,1,2,3,3362,4013,1184,1011,3,3,3
27088,"fixed","untimed",1,4,1,2,3,1952,2067,898,1496,3,3,3
27088,"fixed","untimed",2,4,3,1,2,1035,1207,1097,937,5,5,5
27088,"fixed","untimed",3,4,3,1,2,1144,1224,1414,1130,5,5,5
27088,"fixed","untimed",4,4,3,1,2,843,916,1106,1317,5,5,5
27088,"fixed","untimed",5,4,3,1,2,721,1193,1132,2110,5,5,5
27088,"fixed","untimed",6,4,3,1,2,1148,1412,1685,1518,5,5,5
27088,"fixed","untimed",7,4,3,1,2,710,1218,1240,1053,5,5,5
27088,"fixed","untimed",8,4,3,1,2,813,1207,1819,1182,5,5,5
27088,"fixed","untimed",9,4,3,1,2,966,1315,1117,995,5,5,5
27088,"fixed","deadline",0,4,3,NA,NA,1540,1021,NA,NA,5.5,5,6
27088,"fixed","deadline",1,4,3,NA,NA,991,1215,NA,NA,5.5,5,6
27088,"fixed","deadline",2,4,3,1,2,611,845,1018,846,5,5,5
27088,"fixed","deadline",3,4,3,1,2,759,832,904,562,5,5,5
27088,"fixed","deadline",4,4,3,1,2,676,793,997,997,5,5,5
27088,"fixed","deadline",5,4,3,1,2,559,795,1315,950,5,5,5
27088,"fixed","deadline",6,4,3,1,2,1020,1015,995,789,5,5,5
27088,"fixed","deadline",7,4,3,NA,NA,619,1008,NA,NA,5.5,5,6
27088,"fixed","deadline",8,4,3,1,NA,611,1026,648,NA,5,5,5
27088,"fixed","deadline",9,4,3,1,2,555,1398,995,691,5,5,5
27088,"fixed","deadline",10,4,3,1,2,640,901,1047,712,5,5,5
27088,"fixed","deadline",11,4,2,1,3,575,1090,1140,746,4,4,4
27088,"fixed","deadline",12,4,2,1,3,546,1021,751,527,4,4,4
27088,"fixed","deadline",13,4,2,NA,NA,745,2777,NA,NA,4.5,4,5
27088,"fixed","deadline",14,4,2,1,3,505,1013,880,1096,4,4,4
27088,"fixed","deadline",15,4,2,1,NA,1208,1295,662,NA,4,4,4
27088,"fixed","deadline",16,4,2,1,NA,765,736,813,NA,4,4,4
27088,"fixed","deadline",17,4,2,1,NA,671,1010,1245,NA,4,4,4
27088,"fixed","deadline",18,4,2,1,3,1125,843,895,973,4,4,4
27088,"fixed","deadline",19,1,NA,NA,NA,5931,NA,NA,NA,1.5,0,3
27088,"fixed","deadline",20,1,2,4,NA,1175,1237,766,NA,1,1,1
27088,"fixed","deadline",21,4,1,2,NA,1200,1250,856,NA,3,3,3
27088,"fixed","deadline",22,4,2,1,NA,978,562,813,NA,4,4,4
27088,"fixed","deadline",23,4,2,1,3,1098,999,834,742,4,4,4
27088,"fixed","deadline",24,4,2,1,3,888,877,851,872,4,4,4
27088,"fixed","deadline",25,4,2,1,3,1006,880,835,711,4,4,4
27088,"fixed","deadline",26,4,2,1,3,503,795,781,712,4,4,4
27088,"fixed","deadline",27,4,2,1,3,656,792,770,799,4,4,4
27088,"fixed","deadline",28,4,2,1,3,879,910,735,775,4,4,4
27088,"fixed","deadline",29,4,2,1,3,728,794,734,712,4,4,4
27091,"fixed","untimed",0,1,3,4,NA,4900.725,2557.435,1958.085,NA,2,2,2
27091,"fixed","untimed",1,4,2,1,3,1382.12,1577.92,2778.48,1898.48,4,4,4
27091,"fixed","untimed",2,1,2,4,3,1453.04,2378.33,2605.145,1613.45,1,1,1
27091,"fixed","untimed",3,1,2,4,3,1234.725,1246.31,1895.645,3547.285,1,1,1
27091,"fixed","untimed",4,1,3,4,2,1377.41,1677.95,2863.63,9305.67,2,2,2
27091,"fixed","untimed",5,1,3,4,2,1822.785,1328,1642.39,1411.395,2,2,2
27091,"fixed","untimed",6,1,3,4,2,2614.535,1746.315,1780.09,1256.65,2,2,2
27091,"fixed","untimed",7,2,1,3,4,1296.445,1702.225,1802.915,2280.21,1,1,1
27091,"fixed","untimed",8,4,2,1,3,2530.97,1412.245,2203.285,2495.61,4,4,4
27091,"fixed","untimed",9,1,2,4,3,1991.62,1562.83,1350.1,1536.125,1,1,1
27091,"fixed","deadline",0,1,3,NA,NA,1335.73,754.815,NA,NA,1.5,1,2
27091,"fixed","deadline",1,1,3,4,NA,1183.56,1589.81,954.485,NA,2,2,2
27091,"fixed","deadline",2,1,3,NA,NA,1161.185,1740.045,NA,NA,1.5,1,2
27091,"fixed","deadline",3,1,3,4,NA,1429.89,852.365,532.73,NA,2,2,2
27091,"fixed","deadline",4,1,3,4,2,819.24,738.915,482.335,1138.765,2,2,2
27091,"fixed","deadline",5,1,3,2,NA,699.6,878.955,877.55,NA,1,1,1
27091,"fixed","deadline",6,1,3,NA,NA,665.935,1098.29,NA,NA,1.5,1,2
27091,"fixed","deadline",7,1,2,4,NA,1764.895,966.965,668.03,NA,1,1,1
27091,"fixed","deadline",8,1,2,3,4,844.88,617.215,787.745,1260.235,0,0,0
27091,"fixed","deadline",9,1,2,3,4,575.065,510.9,583.815,843.225,0,0,0
27091,"fixed","deadline",10,1,2,3,NA,700.98,623.67,497.09,NA,0,0,0
27091,"fixed","deadline",11,2,1,3,NA,708.74,579.605,614.015,NA,1,1,1
27091,"fixed","deadline",12,1,2,3,4,1493.885,637.505,474.3,1230.535,0,0,0
27091,"fixed","deadline",13,1,2,4,3,562.865,530.65,1327.775,1070.34,1,1,1
27091,"fixed","deadline",14,1,2,4,3,631.7,698.35,710.7,831.305,1,1,1
27091,"fixed","deadline",15,1,2,4,3,1001.705,612.365,582.83,895.505,1,1,1
27091,"fixed","deadline",16,1,2,4,NA,774.405,530.64,509.825,NA,1,1,1
27091,"fixed","deadline",17,1,2,4,3,947.685,528.305,666.745,1140.605,1,1,1
27091,"fixed","deadline",18,1,2,4,NA,808.385,544.89,910.65,NA,1,1,1
27091,"fixed","deadline",19,1,2,4,NA,605.565,580.045,825.79,NA,1,1,1
27091,"fixed","deadline",20,1,2,4,NA,530.345,457.9,568.985,NA,1,1,1
27091,"fixed","deadline",21,1,2,4,3,501.29,500.035,623.065,850.815,1,1,1
27091,"fixed","deadline",22,1,2,4,3,530.83,680.555,738.32,753.45,1,1,1
27091,"fixed","deadline",23,1,2,4,3,529.445,495.95,367.505,772.51,1,1,1
27091,"fixed","deadline",24,1,2,4,3,539.375,766.745,546.745,861.21,1,1,1
27091,"fixed","deadline",25,2,1,4,NA,597.15,518.27,586.06,NA,2,2,2
27091,"fixed","deadline",26,1,2,4,NA,804.935,363.99,695.74,NA,1,1,1
27091,"fixed","deadline",27,1,2,4,NA,631.175,559.85,613.585,NA,1,1,1
27091,"fixed","deadline",28,1,2,4,3,493.985,773.17,644.86,1038.105,1,1,1
27091,"fixed","deadline",29,1,2,4,NA,554.12,543.295,522.245,NA,1,1,1
27094,"fixed","untimed",0,2,3,4,1,3405.615,3528.68,5431.425,3858.47,3,3,3
27094,"fixed","untimed",1,4,2,1,3,2096.995,2455.465,2393.295,2738.255,4,4,4
27094,"fixed","untimed",2,3,2,1,4,2516.415,1635.765,2588.505,2633.68,3,3,3
27094,"fixed","untimed",3,2,3,4,1,1943.35,2623.585,3856.79,1623.33,3,3,3
27094,"fixed","untimed",4,1,2,3,4,1721.31,2002.58,2412.295,3689.88,0,0,0
27094,"fixed","untimed",5,2,1,3,4,2564.925,1402.245,3769.615,2815.61,1,1,1
27094,"fixed","untimed",6,2,3,1,4,1863.21,4082.26,5198.445,2638.565,2,2,2
27094,"fixed","untimed",7,2,3,4,1,1353.49,1777.145,2357.65,1833.04,3,3,3
27094,"fixed","untimed",8,2,3,4,1,1838.42,3079.645,3201.07,1848.815,3,3,3
27094,"fixed","untimed",9,2,3,4,1,2637.265,1631.96,1547.405,1521.185,3,3,3
27094,"fixed","deadline",0,1,2,NA,NA,1905.67,1313.77,NA,NA,0.5,0,1
27094,"fixed","deadline",1,1,2,3,NA,1340.515,885.905,908.195,NA,0,0,0
27094,"fixed","deadline",2,1,2,4,NA,1199.34,750.14,711.48,NA,1,1,1
27094,"fixed","deadline",3,1,2,3,NA,1025.86,1096.71,930.705,NA,0,0,0
27094,"fixed","deadline",4,1,2,3,NA,1103.88,779.985,777.92,NA,0,0,0
27094,"fixed","deadline",5,1,2,4,NA,1579.54,861.285,1058.585,NA,1,1,1
27094,"fixed","deadline",6,1,2,3,NA,950.01,801.77,834.57,NA,0,0,0
27094,"fixed","deadline",7,1,2,3,4,1106.095,999.5,778.41,1027.18,0,0,0
27094,"fixed","deadline",8,1,2,3,4,1509.74,670.835,622.93,782.505,0,0,0
27094,"fixed","deadline",9,1,2,3,NA,1007.795,800.775,945.045,NA,0,0,0
27094,"fixed","deadline",10,1,2,3,4,937.945,748.095,978.88,1004.94,0,0,0
27094,"fixed","deadline",11,1,2,3,4,895.715,926.12,729.53,822.795,0,0,0
27094,"fixed","deadline",12,1,2,3,4,1272.87,827.19,663.705,762.555,0,0,0
27094,"fixed","deadline",13,1,2,3,4,604.66,698.015,783.515,784.41,0,0,0
27094,"fixed","deadline",14,1,2,3,4,819.34,795.355,836.59,856.12,0,0,0
27094,"fixed","deadline",15,1,2,3,4,670.9,960.995,809.78,723.205,0,0,0
27094,"fixed","deadline",16,1,2,3,4,676.94,599.64,544.93,672.16,0,0,0
27094,"fixed","deadline",17,1,2,3,NA,942.16,731.045,997.84,NA,0,0,0
27094,"fixed","deadline",18,1,2,3,4,706.5,719.52,821.97,841.32,0,0,0
27094,"fixed","deadline",19,1,2,3,NA,1407.775,721.625,919.31,NA,0,0,0
27094,"fixed","deadline",20,1,2,3,NA,1212.695,888.865,745.84,NA,0,0,0
27094,"fixed","deadline",21,1,2,3,4,979.475,618.97,642.905,982.025,0,0,0
27094,"fixed","deadline",22,1,2,3,4,655.535,733.44,541.465,761.235,0,0,0
27094,"fixed","deadline",23,1,2,3,4,822.78,687.535,668.545,706.24,0,0,0
27094,"fixed","deadline",24,1,2,3,4,968.36,621.475,648.55,810.35,0,0,0
27094,"fixed","deadline",25,1,2,3,4,1127.095,793.58,733.4,627.37,0,0,0
27094,"fixed","deadline",26,1,2,3,4,895.84,729.715,559.035,1257.515,0,0,0
27094,"fixed","deadline",27,1,2,3,4,1064.44,664.99,839.34,704.425,0,0,0
27094,"fixed","deadline",28,1,2,3,4,931.185,680.74,740.28,775.71,0,0,0
27094,"fixed","deadline",29,1,2,3,4,899.345,587.16,675.71,750.675,0,0,0
27095,"fixed","untimed",0,3,2,NA,NA,3252.49,9023.135,NA,NA,3.5,3,4
27095,"fixed","untimed",1,2,4,3,1,2069.115,811.18,1464.925,955.65,4,4,4
27095,"fixed","untimed",2,2,4,3,1,963.2,1504.89,976.8,971.525,4,4,4
27095,"fixed","untimed",3,2,4,3,1,1108.78,632.75,652.555,735.335,4,4,4
27095,"fixed","untimed",4,2,4,3,1,1230.78,812.61,777.825,870.71,4,4,4
27095,"fixed","untimed",5,2,4,3,1,604.625,617.96,533.385,773.44,4,4,4
27095,"fixed","untimed",6,2,4,3,1,1012.215,707.76,533.925,792.61,4,4,4
27095,"fixed","untimed",7,2,4,3,1,732.37,696.6,704.63,848.205,4,4,4
27095,"fixed","untimed",8,2,4,3,1,700.395,634.28,630.51,621.575,4,4,4
27095,"fixed","untimed",9,2,4,3,1,613.595,672.315,584.465,660.74,4,4,4
27095,"fixed","deadline",0,2,4,3,1,724.945,473.33,438.11,492.715,4,4,4
27095,"fixed","deadline",1,2,4,3,1,576.345,427.91,404.75,541.805,4,4,4
27095,"fixed","deadline",2,2,4,3,1,606.815,344.65,845.965,658.205,4,4,4
27095,"fixed","deadline",3,2,4,3,1,452.23,525.745,791.945,589.49,4,4,4
27095,"fixed","deadline",4,2,4,3,1,446.615,489.555,603.495,658.075,4,4,4
27095,"fixed","deadline",5,2,4,3,1,548.165,495.195,482.035,700.67,4,4,4
27095,"fixed","deadline",6,2,4,3,1,475.985,611.005,693.69,846.48,4,4,4
27095,"fixed","deadline",7,2,4,3,1,561.52,386.645,490.81,459.68,4,4,4
27095,"fixed","deadline",8,2,4,3,1,417.93,379.435,435.32,460.76,4,4,4
27095,"fixed","deadline",9,2,4,3,1,375.1,347.005,366.75,495.585,4,4,4
27095,"fixed","deadline",10,2,4,3,1,435.915,444.68,480.34,497.35,4,4,4
27095,"fixed","deadline",11,2,4,3,1,528.305,300.83,331.49,505.995,4,4,4
27095,"fixed","deadline",12,2,4,3,1,398.135,596.555,463.295,582.16,4,4,4
27095,"fixed","deadline",13,2,4,3,1,444.745,330.385,374.205,496.38,4,4,4
27095,"fixed","deadline",14,2,4,3,1,345.88,319.94,459.845,548.005,4,4,4
27095,"fixed","deadline",15,2,4,3,1,317.23,594.78,465.345,402.225,4,4,4
27095,"fixed","deadline",16,2,4,3,1,419.355,387.385,538.475,429.26,4,4,4
27095,"fixed","deadline",17,2,4,3,1,320.905,368.84,705.605,602.99,4,4,4
27095,"fixed","deadline",18,2,4,3,1,595.495,602.36,574.825,1130.875,4,4,4
27095,"fixed","deadline",19,2,4,3,1,317.685,509.34,701.285,904.96,4,4,4
27095,"fixed","deadline",20,2,4,3,1,446.08,407.305,579.71,734.79,4,4,4
27095,"fixed","deadline",21,2,4,3,1,395.43,621.92,567.76,677.415,4,4,4
27095,"fixed","deadline",22,2,4,3,1,416.825,626.195,658.17,611.39,4,4,4
27095,"fixed","deadline",23,2,4,3,1,319.92,637.725,525.31,672.39,4,4,4
27095,"fixed","deadline",24,2,4,3,1,350.745,456.495,638.075,546.13,4,4,4
27095,"fixed","deadline",25,2,4,3,1,384.115,411.635,457.865,539.92,4,4,4
27095,"fixed","deadline",26,2,4,3,1,407.285,397.71,563.475,602.86,4,4,4
27095,"fixed","deadline",27,2,4,3,1,680.715,399.075,505.595,637.48,4,4,4
27095,"fixed","deadline",28,2,4,3,1,288.305,441.405,950.28,621.24,4,4,4
27095,"fixed","deadline",29,2,4,3,1,602.645,343.56,503.91,525.52,4,4,4
27102,"fixed","untimed",0,2,4,NA,NA,4501.85,1880.185,NA,NA,3.5,3,4
27102,"fixed","untimed",1,1,2,4,3,825.875,1163.655,879.96,5779.27,1,1,1
27102,"fixed","untimed",2,1,2,4,3,1690.07,886.4150001,1048.235,1155.875,1,1,1
27102,"fixed","untimed",3,1,2,4,3,962.115,1020.88,824.7799999,785.765,1,1,1
27102,"fixed","untimed",4,1,3,2,4,825.25,847.65,1008.15,947.395,1,1,1
27102,"fixed","untimed",5,1,4,3,2,803.205,796.3399999,747.2,1063.24,3,3,3
27102,"fixed","untimed",6,1,4,3,2,907.1750001,841.87,945.605,1138.605,3,3,3
27102,"fixed","untimed",7,1,4,3,2,739.4999999,860.12,731.525,996.9649999,3,3,3
27102,"fixed","untimed",8,1,4,3,2,645.5550001,826.055,672.695,1058.265,3,3,3
27102,"fixed","untimed",9,1,2,4,3,1022.105,829.2200001,661.935,680.36,1,1,1
27102,"fixed","deadline",0,1,2,4,NA,1359.935,879.98,847.11,NA,1,1,1
27102,"fixed","deadline",1,3,1,2,4,691.66,729.5649999,779.46,747.38,2,2,2
27102,"fixed","deadline",2,1,2,4,NA,635.975,1281.3,774.105,NA,1,1,1
27102,"fixed","deadline",3,1,2,4,3,1034.285,736.335,769.87,626.58,1,1,1
27102,"fixed","deadline",4,1,3,4,NA,662.4799999,880.7549999,804.6650001,NA,2,2,2
27102,"fixed","deadline",5,2,1,3,4,512.065,1103.08,892.885,795.765,1,1,1
27102,"fixed","deadline",6,2,1,3,4,754.7449999,787.2899999,834.14,781.31,1,1,1
27102,"fixed","deadline",7,2,1,3,4,471.69,699.07,896.1,787.61,1,1,1
27102,"fixed","deadline",8,2,1,3,4,556.305,564.4650001,632.37,743.1399999,1,1,1
27102,"fixed","deadline",9,2,1,3,4,727.1949999,415.23,925.905,632.485,1,1,1
27102,"fixed","deadline",10,2,1,3,NA,515.975,512.98,910.84,NA,1,1,1
27102,"fixed","deadline",11,1,2,4,3,651.3049999,1032.945,835.4549999,611.4299999,1,1,1
27102,"fixed","deadline",12,2,1,3,4,883.2949999,615.075,715.6649999,627.11,1,1,1
27102,"fixed","deadline",13,2,1,3,4,765.2599999,751.4549999,722.295,763.045,1,1,1
27102,"fixed","deadline",14,2,1,3,4,719.495,613.43,424.6949999,743.2649999,1,1,1
27102,"fixed","deadline",15,2,1,3,4,608.1000001,450.9000001,705.6199999,503.87,1,1,1
27102,"fixed","deadline",16,1,2,4,3,656.48,891.5649999,853.4850001,680.2150001,1,1,1
27102,"fixed","deadline",17,2,1,3,4,568.7149999,587.075,723.1050001,705.3649999,1,1,1
27102,"fixed","deadline",18,1,3,2,4,1126.16,638.1900001,599.68,1328.49,1,1,1
27102,"fixed","deadline",19,1,2,4,3,686.16,674.56,974.025,663.5200001,1,1,1
27102,"fixed","deadline",20,1,2,4,3,561.6700001,664.225,748.885,543.925,1,1,1
27102,"fixed","deadline",21,1,2,4,NA,439.4499999,839.4599999,777.765,NA,1,1,1
27102,"fixed","deadline",22,3,1,2,4,865.335,418.4750001,640.375,710.1649999,2,2,2
27102,"fixed","deadline",23,1,3,2,NA,899.08,651.0249999,775.485,NA,1,1,1
27102,"fixed","deadline",24,2,1,4,3,465.6900001,524.98,877.6349999,531.795,2,2,2
27102,"fixed","deadline",25,1,2,3,NA,542,598.1150001,781.095,NA,0,0,0
27102,"fixed","deadline",26,1,2,4,3,552.8600001,655.5750001,610.6949999,640.3,1,1,1
27102,"fixed","deadline",27,1,2,4,NA,694.5199999,578.295,750.67,NA,1,1,1
27102,"fixed","deadline",28,1,2,3,4,732.3799999,511.8400001,509.1499999,840.0150001,0,0,0
27102,"fixed","deadline",29,1,2,3,4,495.27,521.0300001,617.89,627.815,0,0,0
27106,"fixed","untimed",0,2,4,1,NA,13693.89,2731.33,1671.705,NA,3,3,3
27106,"fixed","untimed",1,2,4,1,3,2933.27,1682.12,1283.315,1471.895,3,3,3
27106,"fixed","untimed",2,2,4,1,3,978.39,1094.07,1003.91,791.03,3,3,3
27106,"fixed","untimed",3,2,4,3,1,795.19,890.165,1016.8,843.24,4,4,4
27106,"fixed","untimed",4,2,4,1,3,810.875,719.845,798.505,513.475,3,3,3
27106,"fixed","untimed",5,2,4,3,1,631.86,727.015,534.475,694.715,4,4,4
27106,"fixed","untimed",6,2,4,3,1,1152.46,866.77,940.065,760.525,4,4,4
27106,"fixed","untimed",7,2,4,3,1,580.155,671.65,616.495,773.27,4,4,4
27106,"fixed","untimed",8,2,4,3,1,748.19,705.77,701.16,807.535,4,4,4
27106,"fixed","untimed",9,2,4,3,1,611.12,738.83,435.785,646.56,4,4,4
27106,"fixed","deadline",0,2,4,1,3,1074.565,897.685,766,1000.425,3,3,3
27106,"fixed","deadline",1,2,1,3,4,886.335,613.565,604.325,688.545,1,1,1
27106,"fixed","deadline",2,2,4,1,3,1341.84,606.5,851.86,1332.52,3,3,3
27106,"fixed","deadline",3,4,3,1,2,744.235,575.375,645.395,1341.905,5,5,5
27106,"fixed","deadline",4,4,2,1,3,723.82,666.07,769.59,1947.385,4,4,4
27106,"fixed","deadline",5,2,1,4,NA,707.9,822.365,1675.04,NA,2,2,2
27106,"fixed","deadline",6,1,4,2,3,890.875,799.155,228.4,152.865,2,2,2
27106,"fixed","deadline",7,2,4,3,1,623.295,922.47,1098.4,760.77,4,4,4
27106,"fixed","deadline",8,2,4,1,3,562.475,783.23,473.73,484.15,3,3,3
27106,"fixed","deadline",9,2,4,3,1,832.705,866.1,560.84,127.47,4,4,4
27106,"fixed","deadline",10,2,4,3,1,703.15,740.42,747.795,611.925,4,4,4
27106,"fixed","deadline",11,2,4,3,1,1211.515,600.41,635.435,548.28,4,4,4
27106,"fixed","deadline",12,2,4,3,1,600.69,526.52,711.725,680.58,4,4,4
27106,"fixed","deadline",13,2,4,3,1,586.77,917.535,245.1,248.31,4,4,4
27106,"fixed","deadline",14,4,2,3,1,1005.635,578.91,559.665,976.52,5,5,5
27106,"fixed","deadline",15,4,2,3,1,811.12,266.05,567.675,576.915,5,5,5
27106,"fixed","deadline",16,2,4,1,3,499.23,713.13,747.4,1490.235,3,3,3
27106,"fixed","deadline",17,2,4,NA,NA,1057.69,925.335,NA,NA,3.5,3,4
27106,"fixed","deadline",18,2,1,4,3,837.475,679.99,663,840.135,2,2,2
27106,"fixed","deadline",19,2,1,3,4,623.97,929.58,793.665,623.815,1,1,1
27106,"fixed","deadline",20,4,3,2,NA,815.615,745.78,1383.48,NA,6,6,6
27106,"fixed","deadline",21,2,4,1,3,1103.495,1470.805,617.395,518.56,3,3,3
27106,"fixed","deadline",22,4,3,2,NA,904.495,625.59,1301.66,NA,6,6,6
27106,"fixed","deadline",23,4,3,2,1,995.145,715.365,1290.785,626.83,6,6,6
27106,"fixed","deadline",24,2,1,3,4,728.655,636.815,1200.485,1602.345,1,1,1
27106,"fixed","deadline",25,2,1,NA,NA,782.54,3976.975,NA,NA,1.5,1,2
27106,"fixed","deadline",26,2,4,3,1,837.23,664.665,1113.305,729.01,4,4,4
27106,"fixed","deadline",27,4,2,3,1,511.41,900.83,1864.82,1572.58,5,5,5
27106,"fixed","deadline",28,4,3,2,1,620.32,1010.465,505.68,1207.325,6,6,6
27106,"fixed","deadline",29,4,2,3,1,981.99,824.265,879.18,667.335,5,5,5
27142,"fixed","untimed",0,2,4,3,1,3998.83,1145.545,1326.25,1411.71,4,4,4
27142,"fixed","untimed",1,4,2,1,3,1544.705,1519.585,651.04,978.005,4,4,4
27142,"fixed","untimed",2,4,3,1,2,1717.58,1136.165,992.25,741.04,5,5,5
27142,"fixed","untimed",3,4,3,1,2,912.21,755.665,982.75,645.21,5,5,5
27142,"fixed","untimed",4,4,3,2,1,566.46,633.25,724.21,470.25,6,6,6
27142,"fixed","untimed",5,4,3,1,2,558.37,552.58,507.25,946.415,5,5,5
27142,"fixed","untimed",6,4,3,1,2,739.67,756.83,483.295,757.92,5,5,5
27142,"fixed","untimed",7,4,3,1,2,553.455,686.62,518.5,592.585,5,5,5
27142,"fixed","untimed",8,4,2,1,3,666.375,726.21,379.58,543.12,4,4,4
27142,"fixed","untimed",9,4,2,1,3,565.96,530.29,616.795,624.745,4,4,4
27142,"fixed","deadline",0,4,3,1,2,880.965,476.835,401.29,478.585,5,5,5
27142,"fixed","deadline",1,4,3,1,2,615.415,417.04,425.08,891.625,5,5,5
27142,"fixed","deadline",2,4,3,1,2,525,492.42,637.04,562.665,5,5,5
27142,"fixed","deadline",3,4,3,NA,NA,632.71,501.875,NA,NA,5.5,5,6
27142,"fixed","deadline",4,4,2,1,3,603.21,477.795,396.67,734.875,4,4,4
27142,"fixed","deadline",5,4,2,1,3,534.955,1032.75,535.29,622.91,4,4,4
27142,"fixed","deadline",6,4,2,1,3,438.875,651.795,466.46,525.17,4,4,4
27142,"fixed","deadline",7,4,3,2,1,625,522.745,594.54,441.455,6,6,6
27142,"fixed","deadline",8,4,3,1,2,435.625,550.375,498.875,786.545,5,5,5
27142,"fixed","deadline",9,4,3,1,2,473.17,584.335,511,657.375,5,5,5
27142,"fixed","deadline",10,4,3,2,1,440.875,634.13,544.455,408.25,6,6,6
27142,"fixed","deadline",11,4,3,2,NA,430.92,639.79,563.33,NA,6,6,6
27142,"fixed","deadline",12,4,3,1,2,537.665,467.46,470.25,524.875,5,5,5
27142,"fixed","deadline",13,4,2,NA,NA,513.205,755.335,NA,NA,4.5,4,5
27142,"fixed","deadline",14,2,1,3,4,402.215,481.045,615.66,636.795,1,1,1
27142,"fixed","deadline",15,2,1,3,4,463.165,559.415,609.835,487.75,1,1,1
27142,"fixed","deadline",16,2,1,3,4,491.705,775.5,382.75,466.915,1,1,1
27142,"fixed","deadline",17,2,1,3,4,381.455,420.79,554.915,722.29,1,1,1
27142,"fixed","deadline",18,2,1,3,4,400.085,440.37,499.045,577.795,1,1,1
27142,"fixed","deadline",19,2,1,3,4,335.21,1216.5,386.585,605.625,1,1,1
27142,"fixed","deadline",20,2,1,3,4,341.75,599.75,783.585,797.21,1,1,1
27142,"fixed","deadline",21,2,1,3,4,567.29,372.67,406.795,615.92,1,1,1
27142,"fixed","deadline",22,2,1,3,NA,838.67,671.46,408.08,NA,1,1,1
27142,"fixed","deadline",23,2,1,3,4,506.375,495.54,529.665,611,1,1,1
27142,"fixed","deadline",24,2,1,3,4,374.58,577,487.29,763.54,1,1,1
27142,"fixed","deadline",25,2,1,3,4,354.295,549.63,441.25,541.04,1,1,1
27142,"fixed","deadline",26,2,1,3,4,636.125,528.585,594.17,579.585,1,1,1
27142,"fixed","deadline",27,2,1,3,4,394.545,654.835,492.455,546.38,1,1,1
27142,"fixed","deadline",28,2,1,3,NA,404.335,470.5,392.12,NA,1,1,1
27142,"fixed","deadline",29,2,1,3,4,503.375,486.04,431.96,807.29,1,1,1
27144,"fixed","untimed",0,1,4,NA,NA,7909.03,4785.035,NA,NA,2.5,2,3
27144,"fixed","untimed",1,3,1,2,4,3071.09,1823.79,1953.06,1480.505,2,2,2
27144,"fixed","untimed",2,1,4,2,3,1783.74,1203.26,1180.85,893.63,2,2,2
27144,"fixed","untimed",3,1,4,2,3,1327.82,1345.005,1125.125,1399.215,2,2,2
27144,"fixed","untimed",4,1,4,2,3,924.415,844.97,854.485,3134.565,2,2,2
27144,"fixed","untimed",5,3,4,1,2,1422.73,1026.445,855.78,1150.705,4,4,4
27144,"fixed","untimed",6,1,4,2,3,1168.615,1280.66,1302.36,975.65,2,2,2
27144,"fixed","untimed",7,1,4,2,3,921.275,982.445,1080.435,1223.565,2,2,2
27144,"fixed","untimed",8,3,1,4,2,1588.025,1045.595,1159.63,1091.79,3,3,3
27144,"fixed","untimed",9,1,4,2,3,1342.565,940.65,1061.8,997.78,2,2,2
27144,"fixed","deadline",0,1,4,2,3,1125.955,958.135,824.64,887.66,2,2,2
27144,"fixed","deadline",1,1,4,2,3,868.52,912.04,853.37,608.52,2,2,2
27144,"fixed","deadline",2,1,4,2,3,677.065,787.105,734.045,800.725,2,2,2
27144,"fixed","deadline",3,3,2,4,1,901.76,852.63,823.945,708.21,4,4,4
27144,"fixed","deadline",4,1,4,2,NA,712.57,701.415,905.025,NA,2,2,2
27144,"fixed","deadline",5,3,1,4,NA,1453.68,797.295,793.99,NA,3,3,3
27144,"fixed","deadline",6,1,4,2,3,1118.625,959.16,849.135,846.295,2,2,2
27144,"fixed","deadline",7,3,1,4,2,1116.785,822.16,826.525,900.65,3,3,3
27144,"fixed","deadline",8,2,4,1,NA,1050.015,397.945,1504.86,NA,3,3,3
27144,"fixed","deadline",9,3,1,NA,NA,1221.91,948.315,NA,NA,2.5,2,3
27144,"fixed","deadline",10,3,1,4,2,1074.01,838.915,979.15,555.925,3,3,3
27144,"fixed","deadline",11,2,4,1,3,1190.87,942.67,752.28,1033.79,3,3,3
27144,"fixed","deadline",12,3,1,4,NA,970.275,910.54,849.25,NA,3,3,3
27144,"fixed","deadline",13,3,1,2,4,648.3,1060.855,961.435,683.27,2,2,2
27144,"fixed","deadline",14,3,1,4,2,693.255,807.255,752.02,867.18,3,3,3
27144,"fixed","deadline",15,3,1,4,NA,786.895,895.085,740.595,NA,3,3,3
27144,"fixed","deadline",16,1,4,2,3,852.195,783.64,808.005,698.345,2,2,2
27144,"fixed","deadline",17,3,1,4,2,926.75,790.8,817.145,861.045,3,3,3
27144,"fixed","deadline",18,3,1,4,2,859.56,816.92,665.92,860.65,3,3,3
27144,"fixed","deadline",19,3,2,4,NA,846.63,1239.335,1304.165,NA,4,4,4
27144,"fixed","deadline",20,1,4,2,NA,647.85,692.49,587.63,NA,2,2,2
27144,"fixed","deadline",21,1,4,2,3,962.015,814.64,903.405,707.595,2,2,2
27144,"fixed","deadline",22,1,4,2,3,1033.73,718.44,1012.78,755.2,2,2,2
27144,"fixed","deadline",23,1,4,2,NA,1407.875,511.12,475.565,NA,2,2,2
27144,"fixed","deadline",24,1,4,NA,NA,1197.335,880.08,NA,NA,2.5,2,3
27144,"fixed","deadline",25,2,4,NA,NA,939.835,722.585,NA,NA,3.5,3,4
27144,"fixed","deadline",26,1,4,2,NA,884.57,764.86,1144.87,NA,2,2,2
27144,"fixed","deadline",27,1,4,2,3,989.56,770.335,609.615,1109.34,2,2,2
27144,"fixed","deadline",28,1,4,2,3,762.5,1308.18,948.82,817.87,2,2,2
27144,"fixed","deadline",29,3,1,NA,NA,631.9,1380.83,NA,NA,2.5,2,3
27149,"fixed","untimed",0,4,1,3,2,2144.52,1825.235,1355.575,2220.335,4,4,4
27149,"fixed","untimed",1,4,1,3,2,1058.545,1331.825,1421.56,1029.34,4,4,4
27149,"fixed","untimed",2,4,2,1,3,824.38,719.105,661.935,566.12,4,4,4
27149,"fixed","untimed",3,4,3,1,2,769.92,527.67,643.475,687.675,5,5,5
27149,"fixed","untimed",4,4,3,1,2,710.01,637.83,645.925,1000.92,5,5,5
27149,"fixed","untimed",5,4,2,1,3,913.97,1210.765,1151.2,1326.11,4,4,4
27149,"fixed","untimed",6,1,2,4,3,1777.635,605.84,2860.065,1708.57,1,1,1
27149,"fixed","untimed",7,1,2,4,3,1763.52,1119.22,1447.45,1215.82,1,1,1
27149,"fixed","untimed",8,1,3,2,4,1459.265,875.33,961.15,1047.44,1,1,1
27149,"fixed","untimed",9,2,1,3,4,1063.335,2230.59,894.575,951.015,1,1,1
27149,"fixed","deadline",0,2,1,3,4,970.06,660.39,580.665,843.115,1,1,1
27149,"fixed","deadline",1,2,1,3,4,743.185,1365.435,953.205,724.725,1,1,1
27149,"fixed","deadline",2,2,1,3,4,631.65,1304.53,813.28,810.085,1,1,1
27149,"fixed","deadline",3,2,1,3,4,658.735,1027.315,877.755,931.92,1,1,1
27149,"fixed","deadline",4,1,3,4,NA,1121.865,729.485,1339.07,NA,2,2,2
27149,"fixed","deadline",5,2,1,3,4,565.5,786.305,738.305,1402.72,1,1,1
27149,"fixed","deadline",6,2,1,3,4,1271.585,866.87,873.095,896.705,1,1,1
27149,"fixed","deadline",7,2,1,3,4,893.82,951.86,978.52,878.89,1,1,1
27149,"fixed","deadline",8,2,1,3,4,682.795,866.415,872.86,821.15,1,1,1
27149,"fixed","deadline",9,2,1,3,4,1029.225,659.62,713.04,805.105,1,1,1
27149,"fixed","deadline",10,1,3,NA,NA,789.9,664.37,NA,NA,1.5,1,2
27149,"fixed","deadline",11,1,2,3,4,1048.135,673,1325.15,811.365,0,0,0
27149,"fixed","deadline",12,1,4,3,2,1115.985,1342.335,777.995,971.165,3,3,3
27149,"fixed","deadline",13,1,2,4,3,841.855,679.83,728.47,1024.57,1,1,1
27149,"fixed","deadline",14,2,1,3,4,687.31,768.455,877.71,941.285,1,1,1
27149,"fixed","deadline",15,2,1,3,4,647.14,749.06,715.295,862.055,1,1,1
27149,"fixed","deadline",16,1,2,4,3,678.4,1520.12,788.175,1146.495,1,1,1
27149,"fixed","deadline",17,1,2,4,3,749.005,866.105,952.73,881.565,1,1,1
27149,"fixed","deadline",18,1,2,4,NA,646.71,769.065,745.69,NA,1,1,1
27149,"fixed","deadline",19,1,2,4,3,856.245,711.545,643.815,834.39,1,1,1
27149,"fixed","deadline",20,1,2,3,4,1256.87,842.53,659.395,674.895,0,0,0
27149,"fixed","deadline",21,1,2,4,NA,580.38,674.85,828.115,NA,1,1,1
27149,"fixed","deadline",22,1,2,4,3,1305.24,755.37,906.93,1328.9,1,1,1
27149,"fixed","deadline",23,1,2,4,3,933.665,521.525,807.46,1637.205,1,1,1
27149,"fixed","deadline",24,1,2,3,NA,1239.36,524.6,942.515,NA,0,0,0
27149,"fixed","deadline",25,1,2,4,NA,594.245,626.13,804.19,NA,1,1,1
27149,"fixed","deadline",26,1,2,3,4,913.195,772.225,1380.725,780.35,0,0,0
27149,"fixed","deadline",27,1,2,4,3,765.005,460.67,838.47,756.96,1,1,1
27149,"fixed","deadline",28,1,2,4,3,522.415,736.615,812.29,820.11,1,1,1
27149,"fixed","deadline",29,2,1,4,NA,705.765,598.185,683.42,NA,2,2,2
27192,"fixed","untimed",0,4,2,3,1,1539.11,1741.825,1542.775,1060.45,5,5,5
27192,"fixed","untimed",1,4,3,2,1,772.81,1110.555,1267.815,928.0150001,6,6,6
27192,"fixed","untimed",2,4,3,2,1,706.44,1235.32,1015.015,1009.445,6,6,6
27192,"fixed","untimed",3,1,4,2,3,689.7099999,1408.82,1030.855,1318.92,2,2,2
27192,"fixed","untimed",4,1,4,2,3,538.905,1361.375,1138.965,927.07,2,2,2
27192,"fixed","untimed",5,4,3,2,1,650.84,1095.025,1261.585,1170.07,6,6,6
27192,"fixed","untimed",6,4,2,3,1,544.3300001,1280.43,1300.865,1267.22,5,5,5
27192,"fixed","untimed",7,1,4,2,3,552.0050001,1005.17,1185.66,1335.285,2,2,2
27192,"fixed","untimed",8,4,2,3,1,590.2849999,991.085,1036.365,1328.615,5,5,5
27192,"fixed","untimed",9,4,2,3,1,644.04,1394.92,1076.02,1052.475,5,5,5
27192,"fixed","deadline",0,4,2,NA,NA,887.5900001,1589.64,NA,NA,4.5,4,5
27192,"fixed","deadline",1,4,2,3,1,665.7199999,1173.405,1260.62,1061.72,5,5,5
27192,"fixed","deadline",2,1,3,2,4,465.3899999,1227.975,991.55,968.385,1,1,1
27192,"fixed","deadline",3,4,2,3,NA,408.525,1040.085,1393.29,NA,5,5,5
27192,"fixed","deadline",4,4,2,3,NA,647.5249999,943.015,1308.94,NA,5,5,5
27192,"fixed","deadline",5,1,3,2,4,360.7750001,963.3000001,1295.04,938.6300001,1,1,1
27192,"fixed","deadline",6,4,2,3,1,316.6500001,955.76,1246.975,967.21,5,5,5
27192,"fixed","deadline",7,1,3,2,4,378.07,871.8849999,1011.58,1029.455,1,1,1
27192,"fixed","deadline",8,4,2,3,NA,428.525,1192.575,1306.595,NA,5,5,5
27192,"fixed","deadline",9,4,2,3,1,730.815,979.095,1084.205,1306.015,5,5,5
27192,"fixed","deadline",10,4,2,3,NA,737.3799999,1143.155,1343.09,NA,5,5,5
27192,"fixed","deadline",11,1,3,2,4,374.895,1031.185,1040.285,1373.765,1,1,1
27192,"fixed","deadline",12,4,2,3,1,366.0500001,979.585,1291.78,1008.445,5,5,5
27192,"fixed","deadline",13,1,3,2,4,716.0050001,977.245,923.97,944.855,1,1,1
27192,"fixed","deadline",14,4,2,3,NA,552.085,917.07,1409.41,NA,5,5,5
27192,"fixed","deadline",15,1,3,2,4,396.635,1050.49,1057.555,954.58,1,1,1
27192,"fixed","deadline",16,4,2,3,NA,426.055,1030.43,1330.29,NA,5,5,5
27192,"fixed","deadline",17,1,3,2,4,412.88,1259.81,918.645,970.9900001,1,1,1
27192,"fixed","deadline",18,4,2,3,1,416.59,986.12,1326.84,1038.985,5,5,5
27192,"fixed","deadline",19,1,3,2,4,408.705,935.7650001,1045.26,961.185,1,1,1
27192,"fixed","deadline",20,4,2,3,1,392.75,928.1199999,934.895,909.7899999,5,5,5
27192,"fixed","deadline",21,1,3,2,4,510.245,919.0849999,1011.11,961.3750001,1,1,1
27192,"fixed","deadline",22,4,2,NA,NA,371.67,1293.025,NA,NA,4.5,4,5
27192,"fixed","deadline",23,4,2,3,NA,440.2600001,916.17,1342.465,NA,5,5,5
27192,"fixed","deadline",24,1,3,2,NA,605.6850001,1052.75,1370.125,NA,1,1,1
27192,"fixed","deadline",25,4,2,3,NA,401.6100001,1120.825,940.4600001,NA,5,5,5
27192,"fixed","deadline",26,1,3,2,4,560.63,1308.05,1042.925,976.4299999,1,1,1
27192,"fixed","deadline",27,4,2,3,1,461.225,1012.185,1219.005,955.8849999,5,5,5
27192,"fixed","deadline",28,1,3,2,4,383.5499999,1337.775,995.3450001,910.79,1,1,1
27192,"fixed","deadline",29,4,2,NA,NA,393.055,1193.84,NA,NA,4.5,4,5
27193,"fixed","untimed",0,2,1,4,NA,4833.26,4017.665,1565.35,NA,2,2,2
27193,"fixed","untimed",1,2,1,4,3,1434.63,430.865,1511.19,2131.155,2,2,2
27193,"fixed","untimed",2,2,4,1,3,1438.72,1171.755,1664.15,1371.47,3,3,3
27193,"fixed","untimed",3,2,4,1,3,1182.07,920.805,1013.495,1062.07,3,3,3
27193,"fixed","untimed",4,2,4,1,3,2046.35,866.645,1072.935,1052.38,3,3,3
27193,"fixed","untimed",5,2,4,1,3,1152.135,2326.79,1008.695,857.325,3,3,3
27193,"fixed","untimed",6,2,4,1,3,798.03,897.04,694.645,740.15,3,3,3
27193,"fixed","untimed",7,2,4,1,3,877.955,1021.265,724.125,772.445,3,3,3
27193,"fixed","untimed",8,2,4,1,3,835.92,942.865,842.8,779.07,3,3,3
27193,"fixed","untimed",9,2,4,1,3,624.59,798.05,991.22,1159.975,3,3,3
27193,"fixed","deadline",0,1,4,NA,NA,1121.775,1097.185,NA,NA,2.5,2,3
27193,"fixed","deadline",1,2,3,1,NA,1246.72,804.645,775.9,NA,2,2,2
27193,"fixed","deadline",2,2,4,1,3,1025.64,446.715,944.855,618.275,3,3,3
27193,"fixed","deadline",3,2,4,1,3,818.245,796.83,574.665,689.725,3,3,3
27193,"fixed","deadline",4,2,4,1,3,805.34,594.33,414.2,707.93,3,3,3
27193,"fixed","deadline",5,2,4,NA,NA,928.04,537.125,NA,NA,3.5,3,4
27193,"fixed","deadline",6,2,4,1,NA,816.835,517.265,597.16,NA,3,3,3
27193,"fixed","deadline",7,2,4,NA,NA,949.505,725.96,NA,NA,3.5,3,4
27193,"fixed","deadline",8,4,NA,NA,NA,1330.965,NA,NA,NA,4.5,3,6
27193,"fixed","deadline",9,1,2,NA,NA,1481.84,1101.61,NA,NA,0.5,0,1
27193,"fixed","deadline",10,2,4,NA,NA,769.845,616.195,NA,NA,3.5,3,4
27193,"fixed","deadline",11,2,1,NA,NA,698.55,1017.465,NA,NA,1.5,1,2
27193,"fixed","deadline",12,3,1,2,NA,771.355,1452,847.405,NA,2,2,2
27193,"fixed","deadline",13,4,1,3,2,583.99,740.08,1276.425,702.495,4,4,4
27193,"fixed","deadline",14,2,1,3,NA,825.795,976.555,774.695,NA,1,1,1
27193,"fixed","deadline",15,2,1,3,4,741.375,971.51,685.845,606.845,1,1,1
27193,"fixed","deadline",16,2,1,3,NA,482.73,504.675,1060.645,NA,1,1,1
27193,"fixed","deadline",17,2,1,3,NA,554.19,568.58,1269.815,NA,1,1,1
27193,"fixed","deadline",18,4,NA,NA,NA,660.755,NA,NA,NA,4.5,3,6
27193,"fixed","deadline",19,2,1,3,4,895.13,580.95,743.515,927.58,1,1,1
27193,"fixed","deadline",20,2,1,3,4,728.185,575.02,729.46,1041.305,1,1,1
27193,"fixed","deadline",21,2,1,3,NA,474.08,563.705,1164.87,NA,1,1,1
27193,"fixed","deadline",22,2,1,3,4,820.41,582.225,712.68,714.77,1,1,1
27193,"fixed","deadline",23,2,1,3,4,477.305,526.36,981,891.605,1,1,1
27193,"fixed","deadline",24,2,1,4,3,460.945,477.705,582.17,640.48,2,2,2
27193,"fixed","deadline",25,2,1,4,3,453.07,498.435,595.54,645.84,2,2,2
27193,"fixed","deadline",26,2,1,4,3,479.185,772.895,646.21,791.885,2,2,2
27193,"fixed","deadline",27,2,1,3,4,598.64,433.3,606.625,554.945,1,1,1
27193,"fixed","deadline",28,2,1,3,NA,968.265,857.105,908.465,NA,1,1,1
27193,"fixed","deadline",29,2,4,NA,NA,501.965,629.35,NA,NA,3.5,3,4
27194,"fixed","untimed",0,1,2,4,NA,8488.285,2453.655,14446.6,NA,1,1,1
27194,"fixed","untimed",1,2,1,4,3,1338.19,1448.865,1996.19,1393.025,2,2,2
27194,"fixed","untimed",2,1,2,3,4,1067.625,2570.16,1246.18,1279.91,0,0,0
27194,"fixed","untimed",3,4,1,2,3,1285.495,2490.895,1183.32,1729.95,3,3,3
27194,"fixed","untimed",4,1,3,2,4,1333.15,1457.68,1234.335,2446.63,1,1,1
27194,"fixed","untimed",5,1,2,4,3,928.66,1134.505,1432.8,1269.815,1,1,1
27194,"fixed","untimed",6,2,1,4,3,895.465,1808.76,1240.855,1297.45,2,2,2
27194,"fixed","untimed",7,1,2,4,3,1093.59,1336.26,2366.645,1376.565,1,1,1
27194,"fixed","untimed",8,1,2,3,4,969.585,1498.07,1564.035,1248.63,0,0,0
27194,"fixed","untimed",9,1,3,2,4,1186.215,4584.65,1782.26,1355.325,1,1,1
27194,"fixed","deadline",0,2,1,NA,NA,1210.23,1178.7,NA,NA,1.5,1,2
27194,"fixed","deadline",1,1,2,4,NA,964.775,1114.105,1126.855,NA,1,1,1
27194,"fixed","deadline",2,2,1,3,NA,838.82,1294.84,1594.705,NA,1,1,1
27194,"fixed","deadline",3,1,2,4,NA,885.215,1217.6,1393.69,NA,1,1,1
27194,"fixed","deadline",4,1,2,3,NA,710.69,1812.12,1163.265,NA,0,0,0
27194,"fixed","deadline",5,1,3,NA,NA,861.48,4376.175,NA,NA,1.5,1,2
27194,"fixed","deadline",6,1,2,NA,NA,843.73,3297.96,NA,NA,0.5,0,1
27194,"fixed","deadline",7,1,2,NA,NA,771.85,3060.24,NA,NA,0.5,0,1
27194,"fixed","deadline",8,1,2,3,NA,881.875,2534.045,1273.1,NA,0,0,0
27194,"fixed","deadline",9,1,2,4,NA,655.615,1290.455,2739.175,NA,1,1,1
27194,"fixed","deadline",10,1,2,NA,NA,828.09,2433.96,NA,NA,0.5,0,1
27194,"fixed","deadline",11,2,1,NA,NA,790.89,2102.435,NA,NA,1.5,1,2
27194,"fixed","deadline",12,1,2,NA,NA,739.43,1127.22,NA,NA,0.5,0,1
27194,"fixed","deadline",13,1,3,NA,NA,849.89,3894.375,NA,NA,1.5,1,2
27194,"fixed","deadline",14,1,4,2,NA,918.11,2583.01,1318.05,NA,2,2,2
27194,"fixed","deadline",15,1,2,NA,NA,915.61,1143.27,NA,NA,0.5,0,1
27194,"fixed","deadline",16,1,2,4,NA,789.98,1297.465,1157.11,NA,1,1,1
27194,"fixed","deadline",17,1,2,NA,NA,814.665,1376.905,NA,NA,0.5,0,1
27194,"fixed","deadline",18,1,2,NA,NA,963.04,1079.015,NA,NA,0.5,0,1
27194,"fixed","deadline",19,1,2,3,NA,755.9,1641.82,1130.845,NA,0,0,0
27194,"fixed","deadline",20,1,2,4,NA,753.105,1121.37,1593.27,NA,1,1,1
27194,"fixed","deadline",21,1,2,NA,NA,881.515,1103.365,NA,NA,0.5,0,1
27194,"fixed","deadline",22,1,3,4,NA,727,1567.42,1479.73,NA,2,2,2
27194,"fixed","deadline",23,1,3,4,NA,675.635,1643.215,1451.14,NA,2,2,2
27194,"fixed","deadline",24,1,3,4,NA,794.28,1079.1,2692.2,NA,2,2,2
27194,"fixed","deadline",25,1,3,4,NA,878.915,1332.425,1394.725,NA,2,2,2
27194,"fixed","deadline",26,1,3,4,NA,774.39,1323.835,2681.3,NA,2,2,2
27194,"fixed","deadline",27,1,3,NA,NA,536.725,1330.225,NA,NA,1.5,1,2
27194,"fixed","deadline",28,1,3,4,2,639.11,1239.23,1137.735,1804.44,2,2,2
27194,"fixed","deadline",29,1,2,NA,NA,715.185,1431.665,NA,NA,0.5,0,1
27200,"fixed","untimed",0,1,2,4,NA,6440.94,5867.805,2481.145,NA,1,1,1
27200,"fixed","untimed",1,2,1,4,3,1044.72,830.83,902.605,968.375,2,2,2
27200,"fixed","untimed",2,2,1,3,4,1262.285,623.99,1520.21,916.64,1,1,1
27200,"fixed","untimed",3,2,1,4,3,1117.015,698.22,618.865,867.36,2,2,2
27200,"fixed","untimed",4,2,1,4,3,954.895,695.265,683.275,798.635,2,2,2
27200,"fixed","untimed",5,2,1,4,3,1169.955,619.935,1074.69,737.635,2,2,2
27200,"fixed","untimed",6,2,1,4,3,936.725,607.36,564.87,719.49,2,2,2
27200,"fixed","untimed",7,2,4,3,1,760.065,644.995,869.595,667.425,4,4,4
27200,"fixed","untimed",8,2,4,3,1,727.885,579.58,753.07,625.975,4,4,4
27200,"fixed","untimed",9,2,4,3,1,887.2,602.185,657.65,884.115,4,4,4
27200,"fixed","deadline",0,2,1,3,NA,1231.605,687.93,1015.095,NA,1,1,1
27200,"fixed","deadline",1,2,1,3,4,662.895,492.74,540.9,405.325,1,1,1
27200,"fixed","deadline",2,2,1,3,4,478.205,579.89,573.98,463.54,1,1,1
27200,"fixed","deadline",3,2,1,3,4,544.05,507.695,603.605,558.27,1,1,1
27200,"fixed","deadline",4,2,1,3,4,531.47,679.885,678.125,692.27,1,1,1
27200,"fixed","deadline",5,2,1,3,4,407.33,639.665,721.085,510.895,1,1,1
27200,"fixed","deadline",6,2,1,3,4,503.205,549.01,463.795,461.135,1,1,1
27200,"fixed","deadline",7,2,1,3,4,371.64,666.015,343.87,405.12,1,1,1
27200,"fixed","deadline",8,2,1,3,4,476.705,613.875,406.515,446.365,1,1,1
27200,"fixed","deadline",9,2,1,3,4,438.63,434.38,405.055,410.085,1,1,1
27200,"fixed","deadline",10,2,1,3,4,464.18,555.15,336.26,671.415,1,1,1
27200,"fixed","deadline",11,2,1,3,4,612.095,378.925,363.78,521.215,1,1,1
27200,"fixed","deadline",12,2,1,3,4,345.515,454.935,497.775,437.865,1,1,1
27200,"fixed","deadline",13,2,1,3,4,435.83,348.37,364.38,568.88,1,1,1
27200,"fixed","deadline",14,2,1,3,4,382.785,494.72,334.585,453.715,1,1,1
27200,"fixed","deadline",15,2,1,3,4,408.655,495.56,382.345,423.175,1,1,1
27200,"fixed","deadline",16,2,1,3,4,416.715,553.045,343.84,413.695,1,1,1
27200,"fixed","deadline",17,2,1,3,4,450.02,435.065,386.31,505.26,1,1,1
27200,"fixed","deadline",18,2,1,3,4,496.935,334.575,340.12,329.14,1,1,1
27200,"fixed","deadline",19,2,1,3,4,354.47,437.745,319.075,422.215,1,1,1
27200,"fixed","deadline",20,2,1,3,4,345.6,457.77,275.475,428.24,1,1,1
27200,"fixed","deadline",21,2,1,3,4,347.905,596.435,357.05,413.77,1,1,1
27200,"fixed","deadline",22,2,1,3,4,382.915,413.625,370.695,504.28,1,1,1
27200,"fixed","deadline",23,2,1,3,4,512.52,499.82,294.48,365.35,1,1,1
27200,"fixed","deadline",24,2,1,3,4,435.61,419.59,494.785,449.52,1,1,1
27200,"fixed","deadline",25,2,1,3,4,358.84,436.585,349.65,463.355,1,1,1
27200,"fixed","deadline",26,2,1,3,4,428.005,465.425,328.55,386.595,1,1,1
27200,"fixed","deadline",27,2,1,3,4,330.19,515.265,334.09,349.365,1,1,1
27200,"fixed","deadline",28,2,1,3,4,330.46,444.91,328.945,432.76,1,1,1
27200,"fixed","deadline",29,2,1,3,4,402.67,399.61,308.295,378.64,1,1,1
27217,"fixed","untimed",0,3,NA,NA,NA,4287,NA,NA,NA,3.5,2,5
27217,"fixed","untimed",1,3,1,4,2,2584,3641,1470,3444,3,3,3
27217,"fixed","untimed",2,1,4,3,2,1635,2263,2165,2257,3,3,3
27217,"fixed","untimed",3,1,4,2,3,1121,1288,1195,2119,2,2,2
27217,"fixed","untimed",4,3,1,2,4,1813,2838,1714,1353,2,2,2
27217,"fixed","untimed",5,1,4,2,3,1318,1478,1814,1471,2,2,2
27217,"fixed","untimed",6,3,1,4,2,1689,954,1226,1552,3,3,3
27217,"fixed","untimed",7,3,2,4,1,859,2210,1195,1289,4,4,4
27217,"fixed","untimed",8,2,4,3,1,830,1003,2126,924,4,4,4
27217,"fixed","untimed",9,1,4,3,2,978,1832,1706,1496,3,3,3
27217,"fixed","deadline",0,1,3,NA,NA,2890,1203,NA,NA,1.5,1,2
27217,"fixed","deadline",1,3,2,NA,NA,1003,1880,NA,NA,3.5,3,4
27217,"fixed","deadline",2,1,3,2,4,703,1086,995,863,1,1,1
27217,"fixed","deadline",3,1,3,2,4,1093,1136,954,922,1,1,1
27217,"fixed","deadline",4,1,4,3,2,921,1457,1429,1322,3,3,3
27217,"fixed","deadline",5,3,2,NA,NA,1116,1143,NA,NA,3.5,3,4
27217,"fixed","deadline",6,1,4,3,2,1374,978,1012,845,3,3,3
27217,"fixed","deadline",7,1,4,3,NA,586,820,858,NA,3,3,3
27217,"fixed","deadline",8,1,3,NA,NA,1025,1301,NA,NA,1.5,1,2
27217,"fixed","deadline",9,3,2,4,NA,1403,1258,1249,NA,4,4,4
27217,"fixed","deadline",10,1,4,3,NA,1062,1173,1165,NA,3,3,3
27217,"fixed","deadline",11,2,3,NA,NA,1779,932,NA,NA,2.5,2,3
27217,"fixed","deadline",12,1,NA,NA,NA,831,NA,NA,NA,1.5,0,3
27217,"fixed","deadline",13,1,3,NA,NA,834,1221,NA,NA,1.5,1,2
27217,"fixed","deadline",14,4,1,2,NA,736,1127,1361,NA,3,3,3
27217,"fixed","deadline",15,3,1,4,NA,691,1082,1001,NA,3,3,3
27217,"fixed","deadline",16,1,4,2,3,894,1094,905,736,2,2,2
27217,"fixed","deadline",17,1,3,NA,NA,739,1259,NA,NA,1.5,1,2
27217,"fixed","deadline",18,3,2,4,NA,729,1301,1119,NA,4,4,4
27217,"fixed","deadline",19,1,3,NA,NA,727,1525,NA,NA,1.5,1,2
27217,"fixed","deadline",20,4,2,3,NA,1044,1144,937,NA,5,5,5
27217,"fixed","deadline",21,1,4,2,3,729,1319,913,855,2,2,2
27217,"fixed","deadline",22,3,2,4,1,865,959,945,1082,4,4,4
27217,"fixed","deadline",23,2,3,4,1,542,1089,1029,968,3,3,3
27217,"fixed","deadline",24,3,2,4,NA,837,1070,894,NA,4,4,4
27217,"fixed","deadline",25,1,3,2,NA,842,1071,1004,NA,1,1,1
27217,"fixed","deadline",26,3,2,NA,NA,748,873,NA,NA,3.5,3,4
27217,"fixed","deadline",27,1,4,NA,NA,810,1065,NA,NA,2.5,2,3
27217,"fixed","deadline",28,3,2,4,NA,920,1210,1028,NA,4,4,4
27217,"fixed","deadline",29,1,3,2,NA,768,1137,1441,NA,1,1,1
27236,"fixed","untimed",0,3,2,1,4,5439.535,3504.965,1222.665,697.96,3,3,3
27236,"fixed","untimed",1,3,2,4,1,1729.92,2111.39,1412.18,1147.68,4,4,4
27236,"fixed","untimed",2,2,1,3,4,2383.34,2112.535,3247.62,1335.05,1,1,1
27236,"fixed","untimed",3,2,3,1,4,1138.85,806.4,2448.165,2187.13,2,2,2
27236,"fixed","untimed",4,2,1,3,4,996.495,1170.575,1214.08,1877.455,1,1,1
27236,"fixed","untimed",5,2,1,3,4,1041.555,613.32,1505.62,1478.82,1,1,1
27236,"fixed","untimed",6,3,2,1,4,1300.78,1729.845,1410.86,2123.005,3,3,3
27236,"fixed","untimed",7,2,1,4,3,1745.155,1287.88,1361.16,1113.47,2,2,2
27236,"fixed","untimed",8,2,1,3,4,1216.495,831.03,1521.585,1354.445,1,1,1
27236,"fixed","untimed",9,2,1,4,3,1012.54,715.695,1217.38,1215.03,2,2,2
27236,"fixed","deadline",0,2,1,4,NA,980.975,780.99,851.36,NA,2,2,2
27236,"fixed","deadline",1,2,1,3,4,842.72,772.535,963.11,919.475,1,1,1
27236,"fixed","deadline",2,2,1,3,4,722.74,688.925,855.755,979.95,1,1,1
27236,"fixed","deadline",3,3,2,1,4,914.525,813.01,580.5,847.875,3,3,3
27236,"fixed","deadline",4,2,1,3,4,867.965,591.39,922.35,956.795,1,1,1
27236,"fixed","deadline",5,2,1,3,NA,790.24,646.74,919.39,NA,1,1,1
27236,"fixed","deadline",6,2,1,3,4,829.355,483.175,682.78,1413.37,1,1,1
27236,"fixed","deadline",7,2,1,3,4,695.85,482.94,964.975,1037.595,1,1,1
27236,"fixed","deadline",8,2,1,3,4,802.095,486.805,1072.77,1037.015,1,1,1
27236,"fixed","deadline",9,2,1,3,4,861.21,487.335,870.365,1871.48,1,1,1
27236,"fixed","deadline",10,2,1,3,4,834.075,381.165,761.35,1298.96,1,1,1
27236,"fixed","deadline",11,1,2,3,4,609.545,665.215,1112.555,1452.755,0,0,0
27236,"fixed","deadline",12,2,1,3,4,598.915,446.4,1483.155,1089.035,1,1,1
27236,"fixed","deadline",13,2,1,3,4,605.505,638.325,988.87,1095.48,1,1,1
27236,"fixed","deadline",14,2,1,3,4,637.405,627.935,1354.92,1023.075,1,1,1
27236,"fixed","deadline",15,2,1,3,4,820.225,530.94,770.04,1321.025,1,1,1
27236,"fixed","deadline",16,2,1,3,4,747.205,530.335,2322.91,875.13,1,1,1
27236,"fixed","deadline",17,2,1,3,4,794.73,595.425,845.865,1304.31,1,1,1
27236,"fixed","deadline",18,2,1,3,4,652.63,472.72,753.405,1934.965,1,1,1
27236,"fixed","deadline",19,2,1,3,4,606.695,537.685,730.375,1391.945,1,1,1
27236,"fixed","deadline",20,1,2,3,NA,1061.415,529.33,1388.72,NA,0,0,0
27236,"fixed","deadline",21,2,1,3,4,1155.175,620.46,837.505,889.35,1,1,1
27236,"fixed","deadline",22,2,1,3,4,654.93,597.195,1419.57,1039.975,1,1,1
27236,"fixed","deadline",23,1,2,3,NA,577.205,754.145,1469.56,NA,0,0,0
27236,"fixed","deadline",24,2,1,3,4,840.35,487.655,1163.685,1230.6,1,1,1
27236,"fixed","deadline",25,2,1,3,4,796.455,821.77,903.15,1353.505,1,1,1
27236,"fixed","deadline",26,2,1,3,4,706.02,579.05,689.715,1221.25,1,1,1
27236,"fixed","deadline",27,2,1,3,4,640.865,597.8,743.825,1646.785,1,1,1
27236,"fixed","deadline",28,2,1,3,4,519.635,617.87,605.295,805.125,1,1,1
27236,"fixed","deadline",29,2,1,3,4,706.77,601.775,1078.865,1549.405,1,1,1
27240,"fixed","untimed",0,2,4,3,1,2671.775,1265.885,1545.195,2943.34,4,4,4
27240,"fixed","untimed",1,4,2,1,3,964.38,1251.465,990.865,946.235,4,4,4
27240,"fixed","untimed",2,4,3,2,1,847.965,1098.58,1335.66,1275.68,6,6,6
27240,"fixed","untimed",3,4,3,2,1,632.055,1071.865,1173.195,910.085,6,6,6
27240,"fixed","untimed",4,1,2,3,4,867.42,914,676.645,686.71,0,0,0
27240,"fixed","untimed",5,1,2,3,4,802.515,800.625,830.68,781.79,0,0,0
27240,"fixed","untimed",6,1,2,3,4,603.015,912.355,852.18,823.525,0,0,0
27240,"fixed","untimed",7,1,2,3,4,712.545,782.295,771.78,789.65,0,0,0
27240,"fixed","untimed",8,1,2,3,4,620.48,670.86,767.185,680.03,0,0,0
27240,"fixed","untimed",9,1,2,3,4,1142.6,695.18,741.875,953,0,0,0
27240,"fixed","deadline",0,1,2,3,NA,1103.445,704.895,918.02,NA,0,0,0
27240,"fixed","deadline",1,1,2,3,4,737.51,641.27,640.4,796.305,0,0,0
27240,"fixed","deadline",2,1,2,3,4,483.52,554.25,681.315,613.665,0,0,0
27240,"fixed","deadline",3,1,2,3,NA,479.67,630.645,582.685,NA,0,0,0
27240,"fixed","deadline",4,1,2,3,4,417.01,400.06,537.175,585.09,0,0,0
27240,"fixed","deadline",5,1,2,3,4,442.84,790.305,535.205,552.975,0,0,0
27240,"fixed","deadline",6,1,2,3,4,472.615,509.765,646.63,747.47,0,0,0
27240,"fixed","deadline",7,1,2,3,4,462.73,406.77,742.33,765.89,0,0,0
27240,"fixed","deadline",8,1,2,3,4,400.275,476.755,546.525,624.44,0,0,0
27240,"fixed","deadline",9,1,2,3,4,504.025,555.735,554.615,679.735,0,0,0
27240,"fixed","deadline",10,1,2,3,4,452.025,587.595,971.19,563.06,0,0,0
27240,"fixed","deadline",11,1,2,3,4,416.415,640.57,885.51,714.975,0,0,0
27240,"fixed","deadline",12,1,2,3,4,389.36,544.835,526.885,755.95,0,0,0
27240,"fixed","deadline",13,1,2,3,4,415.78,843.045,736.755,728.945,0,0,0
27240,"fixed","deadline",14,1,2,3,4,410.96,795.02,611.775,656.93,0,0,0
27240,"fixed","deadline",15,1,2,3,4,499.845,623.535,575.525,688.435,0,0,0
27240,"fixed","deadline",16,1,2,3,4,426.7,821.04,716.83,785.03,0,0,0
27240,"fixed","deadline",17,1,2,3,4,412.395,797.915,776.52,967.69,0,0,0
27240,"fixed","deadline",18,1,2,3,4,408.42,663.305,691.07,692.155,0,0,0
27240,"fixed","deadline",19,1,2,3,4,438.245,606.315,698.23,771.445,0,0,0
27240,"fixed","deadline",20,1,2,3,4,629.075,580.03,556.5,811.49,0,0,0
27240,"fixed","deadline",21,1,2,3,4,395.94,568.655,510.54,846.79,0,0,0
27240,"fixed","deadline",22,1,2,3,4,415.93,602.165,683.645,670.03,0,0,0
27240,"fixed","deadline",23,1,2,3,4,403.71,555.66,521.505,553.055,0,0,0
27240,"fixed","deadline",24,1,2,3,4,652.6,597.44,524.01,747.85,0,0,0
27240,"fixed","deadline",25,1,2,3,4,669.82,645.025,643.135,873.845,0,0,0
27240,"fixed","deadline",26,1,2,3,4,799.075,706.545,504.435,689.01,0,0,0
27240,"fixed","deadline",27,1,2,3,4,419.635,510.635,646.045,680.35,0,0,0
27240,"fixed","deadline",28,1,2,3,4,612.685,658.26,857.145,1056.005,0,0,0
27240,"fixed","deadline",29,1,2,3,4,515.085,628.93,635.13,1095.26,0,0,0
27274,"fixed","untimed",0,4,3,2,1,2594.835,2263.665,1981.33,1586.25,6,6,6
27274,"fixed","untimed",1,3,4,1,2,1132.125,900.915,694.71,2411.33,4,4,4
27274,"fixed","untimed",2,2,4,3,1,742.545,685.125,1129.5,755.09,4,4,4
27274,"fixed","untimed",3,2,4,1,3,916.625,1408.83,630.415,754.25,3,3,3
27274,"fixed","untimed",4,2,4,1,3,366.585,685.67,1015.92,656.33,3,3,3
27274,"fixed","untimed",5,2,4,1,3,678.625,761.87,951.96,960.335,3,3,3
27274,"fixed","untimed",6,2,4,1,3,436.705,784.17,802.875,1111.96,3,3,3
27274,"fixed","untimed",7,2,4,1,3,384.17,1086.71,973.83,794.085,3,3,3
27274,"fixed","untimed",8,2,4,1,3,355.995,1020.5,736.125,1094.87,3,3,3
27274,"fixed","untimed",9,2,4,1,3,383.79,764.96,872.75,869.375,3,3,3
27274,"fixed","deadline",0,2,4,1,3,932.165,1304.165,616,1330.62,3,3,3
27274,"fixed","deadline",1,2,4,1,3,415,617.375,861.665,736.255,3,3,3
27274,"fixed","deadline",2,2,4,1,3,816.21,975.33,976.91,891.21,3,3,3
27274,"fixed","deadline",3,2,4,1,3,405.63,630.835,730.17,562.415,3,3,3
27274,"fixed","deadline",4,2,4,1,3,373.58,613.25,703.585,597.46,3,3,3
27274,"fixed","deadline",5,2,4,1,3,457.085,675.705,699.29,649.75,3,3,3
27274,"fixed","deadline",6,2,4,3,NA,472.29,1139.665,1390.46,NA,4,4,4
27274,"fixed","deadline",7,2,4,1,3,409.665,647.415,779.58,1252.125,3,3,3
27274,"fixed","deadline",8,2,4,NA,NA,729.71,950.415,NA,NA,3.5,3,4
27274,"fixed","deadline",9,2,4,1,3,409.29,996.29,879.75,920.54,3,3,3
27274,"fixed","deadline",10,2,4,1,3,500.125,861.29,1166.505,742.255,3,3,3
27274,"fixed","deadline",11,2,4,1,3,615.67,796.25,1143.08,919.915,3,3,3
27274,"fixed","deadline",12,2,4,1,3,575.96,810.83,592.5,866.085,3,3,3
27274,"fixed","deadline",13,2,4,1,3,606.085,1016.54,809.875,744.42,3,3,3
27274,"fixed","deadline",14,2,4,1,3,399.96,1114.5,929.04,1764.585,3,3,3
27274,"fixed","deadline",15,2,4,1,3,433.75,927.125,687.25,506.21,3,3,3
27274,"fixed","deadline",16,2,4,1,3,447.46,662.5,722.54,919.42,3,3,3
27274,"fixed","deadline",17,2,4,1,3,383.12,608.92,711.545,817.75,3,3,3
27274,"fixed","deadline",18,2,4,1,3,335.75,503.83,495.415,775.25,3,3,3
27274,"fixed","deadline",19,2,4,1,3,326.96,1082.46,713.21,606.125,3,3,3
27274,"fixed","deadline",20,2,4,1,3,321.25,458.165,519.505,668.67,3,3,3
27274,"fixed","deadline",21,2,4,1,3,336.415,459.75,394.995,339.79,3,3,3
27274,"fixed","deadline",22,2,4,1,3,361,1003.25,654.875,691.25,3,3,3
27274,"fixed","deadline",23,2,4,1,3,450.125,514.04,343.375,868.46,3,3,3
27274,"fixed","deadline",24,2,4,1,3,573.625,525.17,623.96,426.665,3,3,3
27274,"fixed","deadline",25,2,4,1,3,586.04,698.17,584.745,762.085,3,3,3
27274,"fixed","deadline",26,2,4,1,3,339.75,468.045,497.375,449.205,3,3,3
27274,"fixed","deadline",27,2,4,1,3,330.245,573.13,702.96,660.79,3,3,3
27274,"fixed","deadline",28,4,1,3,NA,2557.38,595.875,631.165,NA,4,4,4
27274,"fixed","deadline",29,2,4,1,3,395.38,537.625,417.75,388.375,3,3,3
27280,"fixed","untimed",0,2,3,4,1,7753.955,2198.9,1181.27,1295.87,3,3,3
27280,"fixed","untimed",1,2,3,4,1,1065.9,949.825,896.61,1013.89,3,3,3
27280,"fixed","untimed",2,2,3,4,1,1135.215,917.195,909.915,912.065,3,3,3
27280,"fixed","untimed",3,2,3,4,1,874.5,893.535,817.585,787.37,3,3,3
27280,"fixed","untimed",4,1,2,3,4,759.31,886.56,865.35,944.025,0,0,0
27280,"fixed","untimed",5,2,3,4,1,713.375,1152.57,852.655,1055.255,3,3,3
27280,"fixed","untimed",6,2,3,4,1,788.95,875.505,838.305,758.23,3,3,3
27280,"fixed","untimed",7,2,3,4,1,623.945,1145.405,1034.855,990.64,3,3,3
27280,"fixed","untimed",8,2,3,4,1,726.445,878.545,728.735,1104.54,3,3,3
27280,"fixed","untimed",9,2,3,4,1,706.265,855.98,1050.475,743.97,3,3,3
27280,"fixed","deadline",0,1,2,3,NA,971.595,873.4,739.7,NA,0,0,0
27280,"fixed","deadline",1,3,4,1,2,735.08,641.82,781.985,776.355,4,4,4
27280,"fixed","deadline",2,2,3,4,NA,704.54,732.505,694.72,NA,3,3,3
27280,"fixed","deadline",3,3,4,1,NA,895.635,537.345,743.235,NA,4,4,4
27280,"fixed","deadline",4,2,3,4,NA,587.145,903.445,940.44,NA,3,3,3
27280,"fixed","deadline",5,2,3,4,1,874.965,798.055,629.725,703.995,3,3,3
27280,"fixed","deadline",6,2,3,4,NA,629.845,831.035,843.99,NA,3,3,3
27280,"fixed","deadline",7,2,3,4,1,699.69,823.61,643.39,976.945,3,3,3
27280,"fixed","deadline",8,2,3,4,NA,759.69,804.575,951.835,NA,3,3,3
27280,"fixed","deadline",9,2,3,4,1,727.185,825.68,710.735,1114.055,3,3,3
27280,"fixed","deadline",10,2,3,4,1,869.425,787.18,847.21,834.58,3,3,3
27280,"fixed","deadline",11,3,2,1,4,781.725,741.205,833.185,823.51,3,3,3
27280,"fixed","deadline",12,2,3,4,NA,770.275,919.685,2190.45,NA,3,3,3
27280,"fixed","deadline",13,2,1,4,3,863.16,1030.425,855.66,944.37,2,2,2
27280,"fixed","deadline",14,2,3,4,NA,720.07,756.795,870.555,NA,3,3,3
27280,"fixed","deadline",15,2,3,4,1,593.685,648.5,996.895,887.65,3,3,3
27280,"fixed","deadline",16,2,1,4,3,697.415,960.43,394.125,925.61,2,2,2
27280,"fixed","deadline",17,2,1,4,3,564.82,962.915,814.395,761.84,2,2,2
27280,"fixed","deadline",18,2,1,4,NA,614.095,768.21,765.81,NA,2,2,2
27280,"fixed","deadline",19,2,1,NA,NA,1638.885,870.66,NA,NA,1.5,1,2
27280,"fixed","deadline",20,2,1,4,NA,855.375,1195.99,778.525,NA,2,2,2
27280,"fixed","deadline",21,2,1,4,3,862,753.375,846.555,967.465,2,2,2
27280,"fixed","deadline",22,2,1,4,3,518.365,890.715,979.22,770.89,2,2,2
27280,"fixed","deadline",23,2,1,4,NA,517.06,818.775,724.09,NA,2,2,2
27280,"fixed","deadline",24,1,4,3,NA,722.12,828.09,747.66,NA,3,3,3
27280,"fixed","deadline",25,1,4,3,NA,520.68,702.575,756.955,NA,3,3,3
27280,"fixed","deadline",26,2,1,4,NA,721.335,1004.985,697.005,NA,2,2,2
27280,"fixed","deadline",27,3,4,1,2,687.615,768.73,913.11,711.185,4,4,4
27280,"fixed","deadline",28,1,4,3,NA,796.57,671.12,806.595,NA,3,3,3
27280,"fixed","deadline",29,2,1,4,NA,648.725,1560.165,922.09,NA,2,2,2
27291,"fixed","untimed",0,4,3,2,1,2874.9,2445.29,3456.73,1900.92,6,6,6
27291,"fixed","untimed",1,4,3,1,2,1195.815,1628.855,1044.96,797.18,5,5,5
27291,"fixed","untimed",2,4,3,1,2,1191.445,1221.995,952.28,1016.475,5,5,5
27291,"fixed","untimed",3,4,3,2,1,933.025,854.05,1118.01,686.735,6,6,6
27291,"fixed","untimed",4,4,3,2,1,762.695,793.755,727.41,630.25,6,6,6
27291,"fixed","untimed",5,4,3,2,1,859.665,959.405,759.495,694.325,6,6,6
27291,"fixed","untimed",6,4,3,2,1,1699.81,1008.145,943.77,705.85,6,6,6
27291,"fixed","untimed",7,4,3,2,1,829.855,1012.71,827.77,543.48,6,6,6
27291,"fixed","untimed",8,4,3,2,1,572.645,1144.615,1067.17,727.48,6,6,6
27291,"fixed","untimed",9,4,3,2,1,665.13,983.43,941.95,700.91,6,6,6
27291,"fixed","deadline",0,4,3,NA,NA,1189.78,903.84,NA,NA,5.5,5,6
27291,"fixed","deadline",1,4,3,2,1,623.17,719.39,735.445,764.445,6,6,6
27291,"fixed","deadline",2,4,3,NA,NA,618.515,901.055,NA,NA,5.5,5,6
27291,"fixed","deadline",3,4,3,2,NA,529.86,903.855,758.94,NA,6,6,6
27291,"fixed","deadline",4,4,3,2,NA,483.015,656.925,673.7,NA,6,6,6
27291,"fixed","deadline",5,4,3,2,1,610.58,694.275,815.865,580.96,6,6,6
27291,"fixed","deadline",6,4,3,2,NA,515.82,828.13,716.615,NA,6,6,6
27291,"fixed","deadline",7,4,NA,NA,NA,558.805,NA,NA,NA,4.5,3,6
27291,"fixed","deadline",8,4,3,2,NA,462.295,769.53,920.885,NA,6,6,6
27291,"fixed","deadline",9,4,3,2,1,481.735,824.715,595.905,687.175,6,6,6
27291,"fixed","deadline",10,4,3,NA,NA,566.225,759.535,NA,NA,5.5,5,6
27291,"fixed","deadline",11,4,3,NA,NA,506.425,768.72,NA,NA,5.5,5,6
27291,"fixed","deadline",12,4,3,NA,NA,863.705,1401.445,NA,NA,5.5,5,6
27291,"fixed","deadline",13,4,3,2,NA,495.33,990.595,808.64,NA,6,6,6
27291,"fixed","deadline",14,4,3,2,NA,510.41,778.67,894.965,NA,6,6,6
27291,"fixed","deadline",15,4,3,NA,NA,509.725,738.39,NA,NA,5.5,5,6
27291,"fixed","deadline",16,1,2,3,4,666.655,735.385,691.255,819.41,0,0,0
27291,"fixed","deadline",17,1,2,3,4,528.385,709.13,709.18,781.63,0,0,0
27291,"fixed","deadline",18,1,2,3,4,1107.245,724.71,771.64,753.455,0,0,0
27291,"fixed","deadline",19,1,2,3,4,452.195,1464.53,610.31,687.99,0,0,0
27291,"fixed","deadline",20,1,2,3,4,1199.42,673.68,659.805,809.85,0,0,0
27291,"fixed","deadline",21,1,2,3,4,788.055,668.235,618.13,604.385,0,0,0
27291,"fixed","deadline",22,1,2,3,4,412.055,652.29,815.535,755.22,0,0,0
27291,"fixed","deadline",23,1,2,3,4,416.02,651.475,597.04,633.165,0,0,0
27291,"fixed","deadline",24,1,2,3,4,630.65,768.3,781.41,734.66,0,0,0
27291,"fixed","deadline",25,1,2,3,4,598.425,676.415,624.815,891.065,0,0,0
27291,"fixed","deadline",26,1,2,3,4,1038.23,715.16,780.915,742.485,0,0,0
27291,"fixed","deadline",27,1,2,3,4,596.635,601.92,606.66,646.3,0,0,0
27291,"fixed","deadline",28,1,2,3,NA,844.47,630.96,608.04,NA,0,0,0
27291,"fixed","deadline",29,1,2,3,4,897.54,865.105,618.03,738.38,0,0,0
27320,"fixed","untimed",0,4,1,3,NA,6244.13,3684.865,3708.155,NA,4,4,4
27320,"fixed","untimed",1,2,4,3,1,1908.915,2227.435,2038.735,3790.445,4,4,4
27320,"fixed","untimed",2,1,2,4,3,1554.03,2761.995,1189.715,1951.645,1,1,1
27320,"fixed","untimed",3,1,2,4,3,1234.54,3316.7,5360.655,4639.745,1,1,1
27320,"fixed","untimed",4,1,2,4,3,1297.19,2042.36,2893.845,1020.7,1,1,1
27320,"fixed","untimed",5,1,2,4,3,1682.385,3491.75,4635.565,1874.745,1,1,1
27320,"fixed","untimed",6,1,2,4,3,1013.605,1156.07,1509.67,1489.305,1,1,1
27320,"fixed","untimed",7,1,2,4,3,983.265,1143.49,1193.245,1392.9,1,1,1
27320,"fixed","untimed",8,1,2,4,3,1064.405,1024.58,4129.805,657.94,1,1,1
27320,"fixed","untimed",9,1,2,4,3,890.1,6609.685,1523.615,2181.32,1,1,1
27320,"fixed","deadline",0,1,2,4,3,1216.4,847.39,846.37,1035.55,1,1,1
27320,"fixed","deadline",1,1,2,4,3,860.69,965.97,1020.795,1109.65,1,1,1
27320,"fixed","deadline",2,1,2,4,3,732.695,1076.89,926.35,1227.82,1,1,1
27320,"fixed","deadline",3,1,2,4,NA,851.345,866.555,1763.035,NA,1,1,1
27320,"fixed","deadline",4,1,2,4,NA,1044.65,1071.84,1258.28,NA,1,1,1
27320,"fixed","deadline",5,1,2,4,NA,893.43,1229.19,1684.285,NA,1,1,1
27320,"fixed","deadline",6,1,2,4,NA,807.89,809.3,980.885,NA,1,1,1
27320,"fixed","deadline",7,1,2,4,NA,915.6,966.785,1024.69,NA,1,1,1
27320,"fixed","deadline",8,1,2,4,3,831.68,778.535,934.27,1040.255,1,1,1
27320,"fixed","deadline",9,1,2,4,3,825.45,741.655,926.62,1022.735,1,1,1
27320,"fixed","deadline",10,1,2,4,3,723.99,715.265,847.175,945.65,1,1,1
27320,"fixed","deadline",11,1,2,4,3,626.355,713.275,928.22,996.295,1,1,1
27320,"fixed","deadline",12,1,2,4,NA,792.09,660.615,748.41,NA,1,1,1
27320,"fixed","deadline",13,1,2,4,NA,847.07,856.85,838.345,NA,1,1,1
27320,"fixed","deadline",14,1,2,4,NA,1057.48,923.67,878.285,NA,1,1,1
27320,"fixed","deadline",15,1,2,4,3,854.45,1330.955,1734.43,993.55,1,1,1
27320,"fixed","deadline",16,1,2,4,3,833.525,681.19,763.985,957.82,1,1,1
27320,"fixed","deadline",17,1,2,4,NA,696.27,774.44,1040.135,NA,1,1,1
27320,"fixed","deadline",18,1,2,4,NA,735.91,738.025,1217.5,NA,1,1,1
27320,"fixed","deadline",19,1,2,4,NA,935.98,777.175,986.275,NA,1,1,1
27320,"fixed","deadline",20,1,2,4,3,798.215,891.04,951.725,1058.325,1,1,1
27320,"fixed","deadline",21,1,2,4,3,725.88,1001.88,889.025,1002.62,1,1,1
27320,"fixed","deadline",22,1,2,4,3,749.63,1076.79,961.44,957.145,1,1,1
27320,"fixed","deadline",23,1,2,4,3,873.195,746.955,755.89,989.27,1,1,1
27320,"fixed","deadline",24,1,2,4,3,764.145,783.39,1013.93,857.385,1,1,1
27320,"fixed","deadline",25,1,2,4,NA,819.045,720.955,902.55,NA,1,1,1
27320,"fixed","deadline",26,1,2,4,3,853.57,720.405,919.55,940.265,1,1,1
27320,"fixed","deadline",27,1,2,4,NA,713.97,738.69,876.55,NA,1,1,1
27320,"fixed","deadline",28,1,2,4,NA,741.095,838.265,1170.775,NA,1,1,1
27320,"fixed","deadline",29,1,2,4,NA,724.865,730.49,880.76,NA,1,1,1
27347,"fixed","untimed",0,2,1,3,4,1162.42,1875.12,962.585,951.06,1,1,1
27347,"fixed","untimed",1,1,2,3,4,1000.775,553.14,801.295,600.945,0,0,0
27347,"fixed","untimed",2,4,3,1,2,1034.95,1069.75,779.335,718.245,5,5,5
27347,"fixed","untimed",3,2,1,3,4,758.475,618.55,709.07,827.565,1,1,1
27347,"fixed","untimed",4,2,1,3,4,702.955,539.47,706.62,574.98,1,1,1
27347,"fixed","untimed",5,4,3,1,2,616.05,512.61,461.81,441.555,5,5,5
27347,"fixed","untimed",6,2,1,3,4,573.445,516.425,770.68,703.505,1,1,1
27347,"fixed","untimed",7,4,3,1,2,583.81,810.155,504.635,689.795,5,5,5
27347,"fixed","untimed",8,2,1,3,4,706.915,420.325,709.12,704.795,1,1,1
27347,"fixed","untimed",9,2,1,3,4,611.045,523.895,479.335,719.795,1,1,1
27347,"fixed","deadline",0,2,1,3,4,1228.285,483.165,646.535,640.575,1,1,1
27347,"fixed","deadline",1,2,1,3,4,538.705,461.365,699.655,602.68,1,1,1
27347,"fixed","deadline",2,2,1,3,4,500.545,463.42,506.045,635.25,1,1,1
27347,"fixed","deadline",3,2,1,3,NA,830.985,412.075,543.565,NA,1,1,1
27347,"fixed","deadline",4,2,1,3,NA,433.64,457.87,597.955,NA,1,1,1
27347,"fixed","deadline",5,2,1,3,4,468.785,492.905,550.79,1000.04,1,1,1
27347,"fixed","deadline",6,4,3,1,2,888.88,650.965,571.65,500.22,5,5,5
27347,"fixed","deadline",7,2,1,3,4,634.975,365.235,486.595,728.16,1,1,1
27347,"fixed","deadline",8,2,1,3,4,315.38,450.63,446.58,636.375,1,1,1
27347,"fixed","deadline",9,2,1,3,4,375.77,320.38,449.805,610.98,1,1,1
27347,"fixed","deadline",10,2,1,3,4,577.58,391.745,461.305,656.13,1,1,1
27347,"fixed","deadline",11,2,1,3,4,381.52,388.615,543.03,656.605,1,1,1
27347,"fixed","deadline",12,2,1,3,4,516.185,338.865,418.745,720.615,1,1,1
27347,"fixed","deadline",13,2,1,3,4,354.52,373.545,458.99,596.215,1,1,1
27347,"fixed","deadline",14,2,1,3,4,378.23,481.025,490.5,512.235,1,1,1
27347,"fixed","deadline",15,2,1,3,4,352.135,441.01,471.655,574.935,1,1,1
27347,"fixed","deadline",16,2,1,NA,NA,361.23,3910.65,NA,NA,1.5,1,2
27347,"fixed","deadline",17,2,1,3,4,662.04,592.06,480.555,873.6,1,1,1
27347,"fixed","deadline",18,2,1,3,4,707.745,435.66,550.435,594.71,1,1,1
27347,"fixed","deadline",19,2,1,3,4,580.04,431.215,424.755,601.295,1,1,1
27347,"fixed","deadline",20,2,1,3,4,415.22,486.465,464.31,628.075,1,1,1
27347,"fixed","deadline",21,2,1,3,4,401.01,541.94,463.75,833.575,1,1,1
27347,"fixed","deadline",22,2,1,3,4,374.95,614.54,629.205,707.25,1,1,1
27347,"fixed","deadline",23,2,1,3,4,689.845,408.475,430.865,751.855,1,1,1
27347,"fixed","deadline",24,2,1,3,4,404.57,365.765,426.33,699.645,1,1,1
27347,"fixed","deadline",25,2,1,3,4,347.585,640.79,379.11,768.29,1,1,1
27347,"fixed","deadline",26,2,1,3,4,414.2,401.92,597.835,604.945,1,1,1
27347,"fixed","deadline",27,2,1,3,4,563.77,378.715,497.95,590.25,1,1,1
27347,"fixed","deadline",28,2,1,3,4,429.63,401.555,423.89,551.085,1,1,1
27347,"fixed","deadline",29,2,1,3,4,371.1,391.39,402.585,611.07,1,1,1
27366,"fixed","untimed",0,1,3,2,4,2654.5,1730.805,1566.805,1845.935,1,1,1
27366,"fixed","untimed",1,4,2,1,3,1151.625,2194.8,1295.595,2256.055,4,4,4
27366,"fixed","untimed",2,4,3,2,1,1040.235,1315.42,1107.225,936.1,6,6,6
27366,"fixed","untimed",3,2,1,3,4,1428.57,2664.315,985.715,884.285,1,1,1
27366,"fixed","untimed",4,2,3,1,4,1212.36,963.655,884.47,842.095,2,2,2
27366,"fixed","untimed",5,2,1,3,4,1218.12,897.275,949.325,1142.935,1,1,1
27366,"fixed","untimed",6,2,1,3,4,636.645,746.21,1068.725,1117.5,1,1,1
27366,"fixed","untimed",7,2,1,3,4,624.23,915.59,896.705,981.29,1,1,1
27366,"fixed","untimed",8,2,1,3,4,698.825,682.505,977.58,961.51,1,1,1
27366,"fixed","untimed",9,2,1,3,4,727.655,564.05,1079.575,932.785,1,1,1
27366,"fixed","deadline",0,2,1,3,NA,842.285,622.855,1015.66,NA,1,1,1
27366,"fixed","deadline",1,1,2,3,NA,749.14,960.675,1214.87,NA,0,0,0
27366,"fixed","deadline",2,2,1,3,4,661.655,707.89,963.66,769.01,1,1,1
27366,"fixed","deadline",3,2,1,3,4,708.375,1023.58,856.99,813.99,1,1,1
27366,"fixed","deadline",4,2,1,3,4,1322.245,777.4,844.5,776.105,1,1,1
27366,"fixed","deadline",5,2,1,3,4,472.935,857.21,740.915,855.06,1,1,1
27366,"fixed","deadline",6,2,1,3,NA,570.765,686.22,785.7,NA,1,1,1
27366,"fixed","deadline",7,2,1,3,4,552.815,876.305,1275.4,933.035,1,1,1
27366,"fixed","deadline",8,2,1,3,4,625.295,567.165,744.7,847.57,1,1,1
27366,"fixed","deadline",9,2,1,3,4,565.64,803.27,704.6,724.66,1,1,1
27366,"fixed","deadline",10,2,1,3,4,662.745,764.915,823.35,754.01,1,1,1
27366,"fixed","deadline",11,2,1,3,4,536.785,688.16,667.295,892.7,1,1,1
27366,"fixed","deadline",12,2,1,3,4,699.13,690.72,671.77,709.725,1,1,1
27366,"fixed","deadline",13,2,1,3,NA,903.14,474.92,906.965,NA,1,1,1
27366,"fixed","deadline",14,2,1,3,4,501.35,644.16,732.635,748.085,1,1,1
27366,"fixed","deadline",15,2,1,3,4,521.455,647.205,657.525,782.765,1,1,1
27366,"fixed","deadline",16,2,1,3,4,526.815,694.94,761.805,870.845,1,1,1
27366,"fixed","deadline",17,2,1,3,4,655.345,696.205,838.765,845.05,1,1,1
27366,"fixed","deadline",18,2,1,3,4,500.59,474.86,809.82,812.55,1,1,1
27366,"fixed","deadline",19,2,1,3,4,748.69,744.525,893.725,789.475,1,1,1
27366,"fixed","deadline",20,2,1,3,4,537.95,872.91,698.155,1618.35,1,1,1
27366,"fixed","deadline",21,1,2,3,4,591.84,678.835,809.885,694.29,0,0,0
27366,"fixed","deadline",22,2,1,3,4,890.365,598.585,715.405,1404.935,1,1,1
27366,"fixed","deadline",23,2,1,3,4,661.67,595.215,736.025,1576.29,1,1,1
27366,"fixed","deadline",24,2,1,3,4,627.5,742.035,788.945,1009.97,1,1,1
27366,"fixed","deadline",25,2,1,3,4,672.855,739.885,706.48,745.58,1,1,1
27366,"fixed","deadline",26,2,1,3,4,532.24,568.805,642.675,783.57,1,1,1
27366,"fixed","deadline",27,2,1,3,4,649.855,759.695,639.205,851.33,1,1,1
27366,"fixed","deadline",28,2,1,3,4,481.97,529.735,768.38,765.645,1,1,1
27366,"fixed","deadline",29,2,1,3,4,622.03,488.78,538.205,621.41,1,1,1
27372,"fixed","untimed",0,1,2,4,3,1229.87,1432.83,1316.29,1426.345,1,1,1
27372,"fixed","untimed",1,1,2,3,4,2139.565,1465.785,2336.245,2633.675,0,0,0
27372,"fixed","untimed",2,4,2,3,1,1440.65,1151.34,1197.965,1215.085,5,5,5
27372,"fixed","untimed",3,4,2,3,1,1072.895,1170.51,1352.42,1062.495,5,5,5
27372,"fixed","untimed",4,4,2,1,3,817.595,1890.85,1278.025,1249.605,4,4,4
27372,"fixed","untimed",5,4,3,2,1,1234.47,1543.775,1022.58,1101.325,6,6,6
27372,"fixed","untimed",6,4,2,1,3,1384.82,1314.14,1380.4,965.135,4,4,4
27372,"fixed","untimed",7,1,3,2,4,1985.725,1381.765,2030.045,3852.23,1,1,1
27372,"fixed","untimed",8,1,2,3,4,1794.655,1082.91,1274.535,1699.135,0,0,0
27372,"fixed","untimed",9,1,2,3,4,1307.105,1043.015,1361.4,3282.54,0,0,0
27372,"fixed","deadline",0,1,4,2,3,1090.85,912.78,900.65,905.89,2,2,2
27372,"fixed","deadline",1,4,1,3,2,655.67,960.695,783.2,967.025,4,4,4
27372,"fixed","deadline",2,4,1,3,2,1013.125,739.61,808.26,725.68,4,4,4
27372,"fixed","deadline",3,4,NA,NA,NA,756.385,NA,NA,NA,4.5,3,6
27372,"fixed","deadline",4,2,3,1,4,1613.89,1130.415,849.15,1031.055,2,2,2
27372,"fixed","deadline",5,4,1,3,NA,707.965,633.04,878.32,NA,4,4,4
27372,"fixed","deadline",6,1,3,2,4,1261.155,1048.035,907.655,1079.53,1,1,1
27372,"fixed","deadline",7,4,1,3,2,785.41,924.48,857.81,865.895,4,4,4
27372,"fixed","deadline",8,4,1,2,NA,670.395,1078.605,1199.6,NA,3,3,3
27372,"fixed","deadline",9,4,1,2,NA,873.415,1831.54,935.01,NA,3,3,3
27372,"fixed","deadline",10,1,2,4,NA,943.83,895.265,1833.725,NA,1,1,1
27372,"fixed","deadline",11,1,2,3,NA,798.625,946.04,1320.155,NA,0,0,0
27372,"fixed","deadline",12,1,2,3,NA,929.35,1071.54,1441.87,NA,0,0,0
27372,"fixed","deadline",13,1,2,3,NA,740.415,1560.09,1332.33,NA,0,0,0
27372,"fixed","deadline",14,1,2,4,NA,832.94,1001.73,1739.37,NA,1,1,1
27372,"fixed","deadline",15,1,2,3,NA,701.05,1058.605,1326.915,NA,0,0,0
27372,"fixed","deadline",16,1,2,3,NA,1375.125,926.04,1007.8,NA,0,0,0
27372,"fixed","deadline",17,1,2,3,4,1155.14,905.05,899.965,1049.895,0,0,0
27372,"fixed","deadline",18,1,2,3,4,1003.875,1253.35,1465.785,1241.11,0,0,0
27372,"fixed","deadline",19,1,2,3,4,1244.765,1142.875,1147.755,1187.72,0,0,0
27372,"fixed","deadline",20,1,2,3,4,1009.7,904.415,1303.115,1582.525,0,0,0
27372,"fixed","deadline",21,1,2,3,4,718.16,981.775,1412.11,1078.76,0,0,0
27372,"fixed","deadline",22,1,2,4,NA,685.94,838.15,1362.07,NA,1,1,1
27372,"fixed","deadline",23,1,2,4,NA,1047.69,882.785,1227.1,NA,1,1,1
27372,"fixed","deadline",24,1,2,4,NA,797.255,1235.315,1057.49,NA,1,1,1
27372,"fixed","deadline",25,1,2,3,4,533.195,1010.12,1875.255,977.43,0,0,0
27372,"fixed","deadline",26,1,2,4,3,679.9,1043.42,1860.205,1267.71,1,1,1
27372,"fixed","deadline",27,1,2,4,3,624.695,934.175,979.875,1214.815,1,1,1
27372,"fixed","deadline",28,1,2,4,3,801.1,1046.73,1209.835,1016.915,1,1,1
27372,"fixed","deadline",29,1,2,4,3,487.805,884.705,1188.15,1252.625,1,1,1
27390,"fixed","untimed",0,1,3,4,2,2295.87,2201.29,3247.755,1753.335,2,2,2
27390,"fixed","untimed",1,2,3,1,4,2440.21,2896.71,1530.795,2690.37,2,2,2
27390,"fixed","untimed",2,2,3,1,4,948.75,1451.755,1045.29,1475.835,2,2,2
27390,"fixed","untimed",3,2,3,4,1,735.46,1243.21,781.835,995.205,3,3,3
27390,"fixed","untimed",4,2,3,4,1,743.29,995.04,1173.335,953.46,3,3,3
27390,"fixed","untimed",5,4,2,3,1,818.96,1864.335,1904.665,1051.79,5,5,5
27390,"fixed","untimed",6,2,3,4,1,861.915,1028.13,861.62,1199.085,3,3,3
27390,"fixed","untimed",7,2,3,4,1,988.125,1307.085,1159.96,1214.5,3,3,3
27390,"fixed","untimed",8,2,3,4,1,1938.54,936.75,779.455,1193.21,3,3,3
27390,"fixed","untimed",9,2,4,3,1,626.25,849.42,1046.46,867.335,4,4,4
27390,"fixed","deadline",0,3,2,NA,NA,1082.835,1197.045,NA,NA,3.5,3,4
27390,"fixed","deadline",1,2,NA,NA,NA,2688.04,NA,NA,NA,2.5,1,4
27390,"fixed","deadline",2,3,2,1,NA,1063.665,1201.75,1426.375,NA,3,3,3
27390,"fixed","deadline",3,2,3,1,NA,840.375,667.71,933.5,NA,2,2,2
27390,"fixed","deadline",4,2,3,4,1,849.25,909.83,1077.915,774.29,3,3,3
27390,"fixed","deadline",5,2,3,4,NA,1019.96,1197.08,858.17,NA,3,3,3
27390,"fixed","deadline",6,2,1,3,4,1212.665,825.125,893.375,721.295,1,1,1
27390,"fixed","deadline",7,3,4,NA,NA,1146.625,986.875,NA,NA,4.5,4,5
27390,"fixed","deadline",8,2,3,4,NA,978.29,1106.835,1220.08,NA,3,3,3
27390,"fixed","deadline",9,2,1,3,NA,985.085,921.995,2285.79,NA,1,1,1
27390,"fixed","deadline",10,2,4,NA,NA,3833.705,1064.71,NA,NA,3.5,3,4
27390,"fixed","deadline",11,2,3,NA,NA,1055.92,1313.835,NA,NA,2.5,2,3
27390,"fixed","deadline",12,2,1,NA,NA,3653.915,985,NA,NA,1.5,1,2
27390,"fixed","deadline",13,2,1,3,4,1961.875,855.585,790.83,774.5,1,1,1
27390,"fixed","deadline",14,2,3,4,1,870,996.54,1212.375,1098.79,3,3,3
27390,"fixed","deadline",15,2,3,NA,NA,1181.33,1344.085,NA,NA,2.5,2,3
27390,"fixed","deadline",16,NA,NA,NA,NA,NA,NA,NA,NA,3,0,6
27390,"fixed","deadline",17,NA,NA,NA,NA,NA,NA,NA,NA,3,0,6
27390,"fixed","deadline",18,NA,NA,NA,NA,NA,NA,NA,NA,3,0,6
27390,"fixed","deadline",19,2,1,NA,NA,1626.83,1302.375,NA,NA,1.5,1,2
27390,"fixed","deadline",20,2,NA,NA,NA,723.21,NA,NA,NA,2.5,1,4
27390,"fixed","deadline",21,2,NA,NA,NA,903.415,NA,NA,NA,2.5,1,4
27390,"fixed","deadline",22,2,4,3,NA,1626.5,994.04,1014.21,NA,4,4,4
27390,"fixed","deadline",23,3,2,1,NA,1052.545,996.42,930.495,NA,3,3,3
27390,"fixed","deadline",24,2,1,3,4,754.545,915.67,938.585,896.96,1,1,1
27390,"fixed","deadline",25,2,3,1,NA,825.83,1013.58,1147.91,NA,2,2,2
27390,"fixed","deadline",26,1,2,3,NA,3120.79,899.755,1134.295,NA,0,0,0
27390,"fixed","deadline",27,2,4,NA,NA,835.04,774.46,NA,NA,3.5,3,4
27390,"fixed","deadline",28,3,4,1,NA,1247.545,755.085,1519.84,NA,4,4,4
27390,"fixed","deadline",29,2,3,4,NA,669.545,1136.75,1886.915,NA,3,3,3
27396,"fixed","untimed",0,2,1,4,3,4566.93,2002.345,1414.17,3388.495,2,2,2
27396,"fixed","untimed",1,2,1,4,3,1763.875,1442.74,962.445,1370.7,2,2,2
27396,"fixed","untimed",2,2,1,4,3,1172.335,994.77,842.095,974.455,2,2,2
27396,"fixed","untimed",3,2,1,4,3,1459.815,830.36,795.64,846.57,2,2,2
27396,"fixed","untimed",4,2,1,4,3,1215.295,809.34,686.535,987.64,2,2,2
27396,"fixed","untimed",5,2,1,4,3,837.505,707.39,690.34,680.61,2,2,2
27396,"fixed","untimed",6,2,1,4,3,856.02,798.54,746.325,957.95,2,2,2
27396,"fixed","untimed",7,2,1,4,3,988.51,662.23,769.63,828.705,2,2,2
27396,"fixed","untimed",8,2,1,4,3,850.77,880.905,800,728.575,2,2,2
27396,"fixed","untimed",9,2,1,4,3,1030.44,811.425,820.565,702.5,2,2,2
27396,"fixed","deadline",0,2,1,4,NA,1091.68,979.425,702.445,NA,2,2,2
27396,"fixed","deadline",1,2,1,4,3,753.66,728.75,575.175,735.715,2,2,2
27396,"fixed","deadline",2,2,1,4,3,577.465,661.735,677.99,664.34,2,2,2
27396,"fixed","deadline",3,2,1,4,3,581.71,743.975,650.37,662.04,2,2,2
27396,"fixed","deadline",4,2,1,4,NA,582.915,707.36,655.725,NA,2,2,2
27396,"fixed","deadline",5,2,1,4,3,700.665,617.37,675.48,901.635,2,2,2
27396,"fixed","deadline",6,2,1,4,3,533.21,620.975,642.175,647.345,2,2,2
27396,"fixed","deadline",7,2,1,4,3,671.65,657.37,645.34,686.485,2,2,2
27396,"fixed","deadline",8,2,1,4,3,844.22,679.815,631.265,920.345,2,2,2
27396,"fixed","deadline",9,2,1,4,3,411.295,629.08,629.775,800.935,2,2,2
27396,"fixed","deadline",10,2,1,4,NA,560.885,717.86,648.885,NA,2,2,2
27396,"fixed","deadline",11,2,1,4,3,999.845,625.975,626.77,761.335,2,2,2
27396,"fixed","deadline",12,2,1,4,3,733.88,575.98,587.725,943.985,2,2,2
27396,"fixed","deadline",13,2,1,4,3,526.83,601.885,544.055,780.04,2,2,2
27396,"fixed","deadline",14,2,1,4,3,787.485,801.65,860.165,837.775,2,2,2
27396,"fixed","deadline",15,2,1,4,NA,396.045,609.655,973.1,NA,2,2,2
27396,"fixed","deadline",16,2,1,4,3,516.105,644.83,638.615,865.675,2,2,2
27396,"fixed","deadline",17,2,1,4,3,520.22,648.115,678.375,740.555,2,2,2
27396,"fixed","deadline",18,2,1,4,3,926.945,627.505,712.48,691.11,2,2,2
27396,"fixed","deadline",19,2,1,4,3,508.735,635.58,1018.21,766.91,2,2,2
27396,"fixed","deadline",20,2,1,4,3,966.29,684.465,706.89,829.625,2,2,2
27396,"fixed","deadline",21,2,1,4,3,537.745,601.535,657.6,863,2,2,2
27396,"fixed","deadline",22,2,1,4,3,906.85,658.505,642.775,796.23,2,2,2
27396,"fixed","deadline",23,2,1,4,3,1181.545,611.045,904.835,763.66,2,2,2
27396,"fixed","deadline",24,2,1,4,3,765.77,763.175,616.27,706.695,2,2,2
27396,"fixed","deadline",25,2,1,4,3,618.155,594.385,693.96,787.315,2,2,2
27396,"fixed","deadline",26,2,1,4,3,444.65,588.08,731.945,848.825,2,2,2
27396,"fixed","deadline",27,2,1,4,3,862.675,605.57,629.93,752.28,2,2,2
27396,"fixed","deadline",28,2,1,4,3,482.3,584.73,625.845,707.53,2,2,2
27396,"fixed","deadline",29,2,1,4,NA,795.445,799.5,629.19,NA,2,2,2
27422,"fixed","untimed",0,4,3,2,NA,2969,1877,3168,NA,6,6,6
27422,"fixed","untimed",1,4,3,1,2,1348,3232,2258,2362,5,5,5
27422,"fixed","untimed",2,4,3,1,2,1411,993,1255,986,5,5,5
27422,"fixed","untimed",3,4,3,1,2,2265,986,1064,1090,5,5,5
27422,"fixed","untimed",4,4,3,2,1,1022,1802,1343,1058,6,6,6
27422,"fixed","untimed",5,4,3,2,1,1127,938,1316,1661,6,6,6
27422,"fixed","untimed",6,4,3,1,2,971,1111,1116,1048,5,5,5
27422,"fixed","untimed",7,4,3,1,2,873,914,1270,961,5,5,5
27422,"fixed","untimed",8,4,3,1,2,833,867,877,1015,5,5,5
27422,"fixed","untimed",9,4,3,1,2,839,905,839,778,5,5,5
27422,"fixed","deadline",0,4,NA,NA,NA,1250,NA,NA,NA,4.5,3,6
27422,"fixed","deadline",1,4,3,NA,NA,747,885,NA,NA,5.5,5,6
27422,"fixed","deadline",2,2,3,1,NA,1062,1187,773,NA,2,2,2
27422,"fixed","deadline",3,4,3,1,2,1000,748,715,906,5,5,5
27422,"fixed","deadline",4,4,3,1,NA,809,632,790,NA,5,5,5
27422,"fixed","deadline",5,4,3,1,NA,1536,730,721,NA,5,5,5
27422,"fixed","deadline",6,4,3,1,NA,674,692,772,NA,5,5,5
27422,"fixed","deadline",7,1,2,3,4,1324,909,797,788,0,0,0
27422,"fixed","deadline",8,4,3,1,NA,661,606,690,NA,5,5,5
27422,"fixed","deadline",9,2,1,3,NA,2063,676,660,NA,1,1,1
27422,"fixed","deadline",10,1,3,2,NA,1649,724,933,NA,1,1,1
27422,"fixed","deadline",11,3,1,2,NA,1922,732,832,NA,2,2,2
27422,"fixed","deadline",12,4,3,1,NA,926,914,720,NA,5,5,5
27422,"fixed","deadline",13,2,1,3,4,493,573,693,697,1,1,1
27422,"fixed","deadline",14,2,1,3,4,1316,678,811,691,1,1,1
27422,"fixed","deadline",15,2,1,NA,NA,1137,3081,NA,NA,1.5,1,2
27422,"fixed","deadline",16,3,1,2,NA,2030,720,729,NA,2,2,2
27422,"fixed","deadline",17,2,1,3,NA,2250,542,585,NA,1,1,1
27422,"fixed","deadline",18,3,NA,NA,NA,956,NA,NA,NA,3.5,2,5
27422,"fixed","deadline",19,2,NA,NA,NA,6000,NA,NA,NA,2.5,1,4
27422,"fixed","deadline",20,NA,NA,NA,NA,NA,NA,NA,NA,3,0,6
27422,"fixed","deadline",21,2,1,3,4,978,716,678,847,1,1,1
27422,"fixed","deadline",22,2,3,1,4,975,844,564,753,2,2,2
27422,"fixed","deadline",23,4,3,NA,NA,1088,416,NA,NA,5.5,5,6
27422,"fixed","deadline",24,4,2,NA,NA,3968,793,NA,NA,4.5,4,5
27422,"fixed","deadline",25,2,1,NA,NA,1329,1173,NA,NA,1.5,1,2
27422,"fixed","deadline",26,1,3,2,4,1171,709,871,674,1,1,1
27422,"fixed","deadline",27,2,1,3,4,1895,690,612,706,1,1,1
27422,"fixed","deadline",28,2,1,3,NA,1386,703,677,NA,1,1,1
27422,"fixed","deadline",29,2,1,3,4,689,720,591,785,1,1,1
27469,"fixed","untimed",0,4,NA,NA,NA,3440,NA,NA,NA,4.5,3,6
27469,"fixed","untimed",1,4,NA,NA,NA,2073,NA,NA,NA,4.5,3,6
27469,"fixed","untimed",2,4,3,1,2,1840,4265,3815,4991,5,5,5
27469,"fixed","untimed",3,2,3,1,NA,13100,7233,5575,NA,2,2,2
27469,"fixed","untimed",4,NA,NA,NA,NA,NA,NA,NA,NA,3,0,6
27469,"fixed","untimed",5,3,4,2,NA,1534,3031,3422,NA,5,5,5
27469,"fixed","untimed",6,2,1,4,3,2898,2114,7577,2610,2,2,2
27469,"fixed","untimed",7,3,2,1,4,1701,2890,2193,1523,3,3,3
27469,"fixed","untimed",8,2,4,3,1,3649,2873,2505,8986,4,4,4
27469,"fixed","untimed",9,1,2,NA,NA,4639,15446,NA,NA,0.5,0,1
27469,"fixed","deadline",0,NA,NA,NA,NA,NA,NA,NA,NA,3,0,6
27469,"fixed","deadline",1,NA,NA,NA,NA,NA,NA,NA,NA,3,0,6
27469,"fixed","deadline",2,NA,NA,NA,NA,NA,NA,NA,NA,3,0,6
27469,"fixed","deadline",3,NA,NA,NA,NA,NA,NA,NA,NA,3,0,6
27469,"fixed","deadline",4,NA,NA,NA,NA,NA,NA,NA,NA,3,0,6
27469,"fixed","deadline",5,3,2,NA,NA,2403,2024,NA,NA,3.5,3,4
27469,"fixed","deadline",6,4,NA,NA,NA,1706,NA,NA,NA,4.5,3,6
27469,"fixed","deadline",7,NA,NA,NA,NA,NA,NA,NA,NA,3,0,6
27469,"fixed","deadline",8,NA,NA,NA,NA,NA,NA,NA,NA,3,0,6
27469,"fixed","deadline",9,NA,NA,NA,NA,NA,NA,NA,NA,3,0,6
27469,"fixed","deadline",10,NA,NA,NA,NA,NA,NA,NA,NA,3,0,6
27469,"fixed","deadline",11,4,1,NA,NA,2162,2711,NA,NA,3.5,3,4
27469,"fixed","deadline",12,3,4,NA,NA,1047,2470,NA,NA,4.5,4,5
27469,"fixed","deadline",13,NA,NA,NA,NA,NA,NA,NA,NA,3,0,6
27469,"fixed","deadline",14,2,NA,NA,NA,3153,NA,NA,NA,2.5,1,4
27469,"fixed","deadline",15,NA,NA,NA,NA,NA,NA,NA,NA,3,0,6
27469,"fixed","deadline",16,NA,NA,NA,NA,NA,NA,NA,NA,3,0,6
27469,"fixed","deadline",17,NA,NA,NA,NA,NA,NA,NA,NA,3,0,6
27469,"fixed","deadline",18,NA,NA,NA,NA,NA,NA,NA,NA,3,0,6
27469,"fixed","deadline",19,NA,NA,NA,NA,NA,NA,NA,NA,3,0,6
27469,"fixed","deadline",20,3,NA,NA,NA,4468,NA,NA,NA,3.5,2,5
27469,"fixed","deadline",21,NA,NA,NA,NA,NA,NA,NA,NA,3,0,6
27469,"fixed","deadline",22,NA,NA,NA,NA,NA,NA,NA,NA,3,0,6
27469,"fixed","deadline",23,2,NA,NA,NA,5423,NA,NA,NA,2.5,1,4
27469,"fixed","deadline",24,NA,NA,NA,NA,NA,NA,NA,NA,3,0,6
27469,"fixed","deadline",25,NA,NA,NA,NA,NA,NA,NA,NA,3,0,6
27469,"fixed","deadline",26,3,NA,NA,NA,2656,NA,NA,NA,3.5,2,5
27469,"fixed","deadline",27,2,NA,NA,NA,3358,NA,NA,NA,2.5,1,4
27469,"fixed","deadline",28,NA,NA,NA,NA,NA,NA,NA,NA,3,0,6
27469,"fixed","deadline",29,NA,NA,NA,NA,NA,NA,NA,NA,3,0,6
27504,"fixed","untimed",0,2,1,4,3,3053,1991,1222,4070,2,2,2
27504,"fixed","untimed",1,2,1,4,3,1609,856,974,2356,2,2,2
27504,"fixed","untimed",2,2,1,4,3,1525,693,802,1165,2,2,2
27504,"fixed","untimed",3,2,1,4,3,1100,705,772,1123,2,2,2
27504,"fixed","untimed",4,2,1,4,3,621,683,968,919,2,2,2
27504,"fixed","untimed",5,2,1,4,3,1018,614,622,802,2,2,2
27504,"fixed","untimed",6,2,1,4,3,863,771,778,1056,2,2,2
27504,"fixed","untimed",7,2,1,4,3,730,737,834,768,2,2,2
27504,"fixed","untimed",8,2,1,4,3,543,727,684,1157,2,2,2
27504,"fixed","untimed",9,2,1,4,3,752,675,675,728,2,2,2
27504,"fixed","deadline",0,2,NA,NA,NA,1120,NA,NA,NA,2.5,1,4
27504,"fixed","deadline",1,2,1,4,NA,462,680,787,NA,2,2,2
27504,"fixed","deadline",2,2,1,4,3,465,565,908,532,2,2,2
27504,"fixed","deadline",3,2,1,4,NA,929,1987,815,NA,2,2,2
27504,"fixed","deadline",4,2,1,4,3,515,517,614,1162,2,2,2
27504,"fixed","deadline",5,2,1,4,3,614,779,535,1021,2,2,2
27504,"fixed","deadline",6,2,1,4,3,440,707,851,871,2,2,2
27504,"fixed","deadline",7,2,1,4,3,480,958,664,655,2,2,2
27504,"fixed","deadline",8,2,1,4,3,496,597,709,586,2,2,2
27504,"fixed","deadline",9,2,1,4,3,453,589,1022,531,2,2,2
27504,"fixed","deadline",10,2,1,4,3,440,629,688,692,2,2,2
27504,"fixed","deadline",11,2,1,4,3,469,703,691,907,2,2,2
27504,"fixed","deadline",12,2,1,4,3,384,784,866,888,2,2,2
27504,"fixed","deadline",13,2,1,4,NA,269,1612,899,NA,2,2,2
27504,"fixed","deadline",14,2,1,4,3,486,1046,767,644,2,2,2
27504,"fixed","deadline",15,2,1,4,3,431,745,715,509,2,2,2
27504,"fixed","deadline",16,2,1,4,3,906,557,742,475,2,2,2
27504,"fixed","deadline",17,2,1,4,3,446,666,1170,568,2,2,2
27504,"fixed","deadline",18,2,1,4,3,772,976,708,918,2,2,2
27504,"fixed","deadline",19,2,1,4,3,626,498,772,731,2,2,2
27504,"fixed","deadline",20,2,1,4,3,496,487,822,929,2,2,2
27504,"fixed","deadline",21,2,1,4,3,584,552,578,647,2,2,2
27504,"fixed","deadline",22,2,1,4,3,382,587,1058,783,2,2,2
27504,"fixed","deadline",23,2,1,4,3,444,660,741,683,2,2,2
27504,"fixed","deadline",24,2,1,4,3,506,582,633,809,2,2,2
27504,"fixed","deadline",25,2,1,4,3,554,669,794,636,2,2,2
27504,"fixed","deadline",26,2,1,4,3,344,569,982,767,2,2,2
27504,"fixed","deadline",27,2,1,4,3,516,900,787,1132,2,2,2
27504,"fixed","deadline",28,2,1,4,3,623,483,897,436,2,2,2
27504,"fixed","deadline",29,2,1,4,3,879,407,874,689,2,2,2
27509,"fixed","untimed",0,3,2,4,1,3649.81,3718.275,1244.59,1614.61,4,4,4
27509,"fixed","untimed",1,2,3,4,1,1189.635,949.175,867.625,728.975,3,3,3
27509,"fixed","untimed",2,2,4,1,3,916.89,1149.7,981.79,957.78,3,3,3
27509,"fixed","untimed",3,2,4,3,1,1713.13,804.995,1057.67,1208.565,4,4,4
27509,"fixed","untimed",4,2,4,3,1,1089.14,851.69,988.505,837.905,4,4,4
27509,"fixed","untimed",5,2,3,1,4,1131.675,820.675,1283.445,826.655,2,2,2
27509,"fixed","untimed",6,2,3,1,4,980.435,1257.52,1162.145,977.305,2,2,2
27509,"fixed","untimed",7,2,3,4,1,1010.045,1125.15,1483.465,902.17,3,3,3
27509,"fixed","untimed",8,3,2,4,1,1000.23,846.945,865.725,791.655,4,4,4
27509,"fixed","untimed",9,2,4,1,3,1128.57,969.12,989.04,892.455,3,3,3
27509,"fixed","deadline",0,2,3,NA,NA,1078.385,1131.76,NA,NA,2.5,2,3
27509,"fixed","deadline",1,3,1,NA,NA,965.66,1053.12,NA,NA,2.5,2,3
27509,"fixed","deadline",2,3,2,4,NA,1338.89,1054.21,912.375,NA,4,4,4
27509,"fixed","deadline",3,3,2,NA,NA,1023.89,1092.84,NA,NA,3.5,3,4
27509,"fixed","deadline",4,3,1,2,NA,1140.015,1031.66,1793.575,NA,2,2,2
27509,"fixed","deadline",5,3,2,NA,NA,1198.58,852.7,NA,NA,3.5,3,4
27509,"fixed","deadline",6,2,3,NA,NA,892.215,1429.855,NA,NA,2.5,2,3
27509,"fixed","deadline",7,3,2,NA,NA,991.87,1059.105,NA,NA,3.5,3,4
27509,"fixed","deadline",8,3,2,NA,NA,1115.335,826.515,NA,NA,3.5,3,4
27509,"fixed","deadline",9,2,4,NA,NA,2015.9,1365.24,NA,NA,3.5,3,4
27509,"fixed","deadline",10,3,2,NA,NA,1234.83,907.88,NA,NA,3.5,3,4
27509,"fixed","deadline",11,3,NA,NA,NA,2254.78,NA,NA,NA,3.5,2,5
27509,"fixed","deadline",12,2,3,NA,NA,1206.505,844.515,NA,NA,2.5,2,3
27509,"fixed","deadline",13,2,4,1,3,801.325,899.63,1641.195,1043.57,3,3,3
27509,"fixed","deadline",14,NA,NA,NA,NA,NA,NA,NA,NA,3,0,6
27509,"fixed","deadline",15,2,3,1,4,761,1429.02,992.02,814.07,2,2,2
27509,"fixed","deadline",16,2,4,1,NA,890.17,1188.51,729.01,NA,3,3,3
27509,"fixed","deadline",17,NA,NA,NA,NA,NA,NA,NA,NA,3,0,6
27509,"fixed","deadline",18,3,2,4,1,1001.1,719.575,844.27,1187.35,4,4,4
27509,"fixed","deadline",19,3,4,2,NA,955.085,1200.235,798.115,NA,5,5,5
27509,"fixed","deadline",20,3,1,4,NA,1101.485,1010.82,1825.64,NA,3,3,3
27509,"fixed","deadline",21,2,NA,NA,NA,1412.715,NA,NA,NA,2.5,1,4
27509,"fixed","deadline",22,3,2,NA,NA,1117.91,830.34,NA,NA,3.5,3,4
27509,"fixed","deadline",23,2,3,4,1,955.575,1338.355,1156.595,910.36,3,3,3
27509,"fixed","deadline",24,3,2,4,1,995.385,931.945,1196.895,1092.265,4,4,4
27509,"fixed","deadline",25,2,4,NA,NA,1132.96,957.18,NA,NA,3.5,3,4
27509,"fixed","deadline",26,3,NA,NA,NA,1068.015,NA,NA,NA,3.5,2,5
27509,"fixed","deadline",27,2,3,4,NA,1013.135,1356.865,1193.495,NA,3,3,3
27509,"fixed","deadline",28,2,3,4,NA,1492.32,1191.635,816.375,NA,3,3,3
27509,"fixed","deadline",29,3,2,4,1,1052.25,787.04,870.63,727.345,4,4,4
27596,"fixed","untimed",0,2,1,3,4,5349.32,1629.05,1954.66,1256.43,1,1,1
27596,"fixed","untimed",1,4,2,3,1,1577.565,771.34,621.275,584.79,5,5,5
27596,"fixed","untimed",2,4,2,3,1,913.485,854.27,626.39,647.275,5,5,5
27596,"fixed","untimed",3,4,2,3,1,1086.84,864.77,632.22,691.34,5,5,5
27596,"fixed","untimed",4,4,2,3,1,1212.75,1103.5,974.855,1103.6,5,5,5
27596,"fixed","untimed",5,4,2,3,1,808.81,922.935,1056.875,1011.35,5,5,5
27596,"fixed","untimed",6,4,2,3,1,903.99,1115.02,931.33,1947.45,5,5,5
27596,"fixed","untimed",7,4,2,3,1,1198.635,1044.02,986.755,808.775,5,5,5
27596,"fixed","untimed",8,4,2,3,1,791.855,662.875,661.91,758.795,5,5,5
27596,"fixed","untimed",9,4,2,3,1,767.4,958.125,802.235,860.745,5,5,5
27596,"fixed","deadline",0,4,2,3,1,1155.81,727.42,662.65,808.895,5,5,5
27596,"fixed","deadline",1,4,2,3,NA,786.67,815.415,702.505,NA,5,5,5
27596,"fixed","deadline",2,4,2,NA,NA,895.82,797.49,NA,NA,4.5,4,5
27596,"fixed","deadline",3,4,2,3,1,851.51,668.32,749.115,565.07,5,5,5
27596,"fixed","deadline",4,4,2,3,NA,738.635,1077.96,903.95,NA,5,5,5
27596,"fixed","deadline",5,4,2,3,NA,850.31,929.375,763.36,NA,5,5,5
27596,"fixed","deadline",6,4,2,3,NA,896.885,905.415,784.155,NA,5,5,5
27596,"fixed","deadline",7,4,2,3,1,793.585,812.635,652.845,494.815,5,5,5
27596,"fixed","deadline",8,4,2,3,1,775.215,719.515,794.9,661.365,5,5,5
27596,"fixed","deadline",9,4,2,NA,NA,664.545,911.21,NA,NA,4.5,4,5
27596,"fixed","deadline",10,4,NA,NA,NA,1218.42,NA,NA,NA,4.5,3,6
27596,"fixed","deadline",11,1,3,2,4,750.155,713.425,710.14,649.39,1,1,1
27596,"fixed","deadline",12,4,1,3,2,692.91,623.625,908.665,666.5,4,4,4
27596,"fixed","deadline",13,4,1,3,NA,1446.55,779.565,850.62,NA,4,4,4
27596,"fixed","deadline",14,2,3,1,4,578.725,569.115,989.955,633.185,2,2,2
27596,"fixed","deadline",15,3,1,2,4,1341.045,677.4,930.245,673.36,2,2,2
27596,"fixed","deadline",16,3,1,2,4,576.595,779.62,899.485,669.32,2,2,2
27596,"fixed","deadline",17,3,1,2,4,772.965,650,739.86,667.305,2,2,2
27596,"fixed","deadline",18,3,1,2,4,653.665,633.62,1057.88,624.73,2,2,2
27596,"fixed","deadline",19,3,1,2,4,706.065,813.655,614.575,523.315,2,2,2
27596,"fixed","deadline",20,3,1,2,4,574.525,657.35,852.06,744.32,2,2,2
27596,"fixed","deadline",21,3,1,2,4,500.14,575.135,827.6,752.195,2,2,2
27596,"fixed","deadline",22,3,1,2,4,542.075,592.64,650.86,611.145,2,2,2
27596,"fixed","deadline",23,3,1,2,4,800.54,1005.565,657.94,675.28,2,2,2
27596,"fixed","deadline",24,3,1,2,4,834.46,678.325,878.435,701.45,2,2,2
27596,"fixed","deadline",25,3,2,1,4,779.73,813.32,692.19,819.45,3,3,3
27596,"fixed","deadline",26,3,1,2,4,703.88,588.915,1046.04,728.4,2,2,2
27596,"fixed","deadline",27,3,1,2,4,776.325,683.125,678.405,580.075,2,2,2
27596,"fixed","deadline",28,3,1,2,4,739.89,617.34,705.815,625.985,2,2,2
27596,"fixed","deadline",29,3,1,2,4,512.725,874.29,665.85,815.575,2,2,2
27608,"fixed","untimed",0,4,3,NA,NA,3829,2767,NA,NA,5.5,5,6
27608,"fixed","untimed",1,3,NA,NA,NA,1755,NA,NA,NA,3.5,2,5
27608,"fixed","untimed",2,4,NA,NA,NA,26083,NA,NA,NA,4.5,3,6
27608,"fixed","untimed",3,3,4,NA,NA,1645,3671,NA,NA,4.5,4,5
27608,"fixed","untimed",4,4,NA,NA,NA,3277,NA,NA,NA,4.5,3,6
27608,"fixed","untimed",5,4,NA,NA,NA,1007,NA,NA,NA,4.5,3,6
27608,"fixed","untimed",6,4,NA,NA,NA,9967,NA,NA,NA,4.5,3,6
27608,"fixed","untimed",7,4,NA,NA,NA,978,NA,NA,NA,4.5,3,6
27608,"fixed","untimed",8,4,NA,NA,NA,1097,NA,NA,NA,4.5,3,6
27608,"fixed","untimed",9,4,NA,NA,NA,2149,NA,NA,NA,4.5,3,6
27608,"fixed","deadline",0,4,NA,NA,NA,3032,NA,NA,NA,4.5,3,6
27608,"fixed","deadline",1,4,NA,NA,NA,3404,NA,NA,NA,4.5,3,6
27608,"fixed","deadline",2,NA,NA,NA,NA,NA,NA,NA,NA,3,0,6
27608,"fixed","deadline",3,4,NA,NA,NA,842,NA,NA,NA,4.5,3,6
27608,"fixed","deadline",4,4,NA,NA,NA,756,NA,NA,NA,4.5,3,6
27608,"fixed","deadline",5,4,1,NA,NA,1089,3600,NA,NA,3.5,3,4
27608,"fixed","deadline",6,1,4,NA,NA,809,1864,NA,NA,2.5,2,3
27608,"fixed","deadline",7,3,NA,NA,NA,2491,NA,NA,NA,3.5,2,5
27608,"fixed","deadline",8,4,NA,NA,NA,1311,NA,NA,NA,4.5,3,6
27608,"fixed","deadline",9,4,NA,NA,NA,3429,NA,NA,NA,4.5,3,6
27608,"fixed","deadline",10,4,NA,NA,NA,1111,NA,NA,NA,4.5,3,6
27608,"fixed","deadline",11,3,NA,NA,NA,1137,NA,NA,NA,3.5,2,5
27608,"fixed","deadline",12,3,NA,NA,NA,900,NA,NA,NA,3.5,2,5
27608,"fixed","deadline",13,3,NA,NA,NA,993,NA,NA,NA,3.5,2,5
27608,"fixed","deadline",14,3,NA,NA,NA,1095,NA,NA,NA,3.5,2,5
27608,"fixed","deadline",15,2,NA,NA,NA,2304,NA,NA,NA,2.5,1,4
27608,"fixed","deadline",16,1,NA,NA,NA,831,NA,NA,NA,1.5,0,3
27608,"fixed","deadline",17,1,NA,NA,NA,936,NA,NA,NA,1.5,0,3
27608,"fixed","deadline",18,1,NA,NA,NA,771,NA,NA,NA,1.5,0,3
27608,"fixed","deadline",19,1,NA,NA,NA,1448,NA,NA,NA,1.5,0,3
27608,"fixed","deadline",20,3,NA,NA,NA,2230,NA,NA,NA,3.5,2,5
27608,"fixed","deadline",21,2,NA,NA,NA,1370,NA,NA,NA,2.5,1,4
27608,"fixed","deadline",22,4,1,NA,NA,786,2991,NA,NA,3.5,3,4
27608,"fixed","deadline",23,1,4,NA,NA,708,1227,NA,NA,2.5,2,3
27608,"fixed","deadline",24,4,3,NA,NA,819,3288,NA,NA,5.5,5,6
27608,"fixed","deadline",25,1,NA,NA,NA,1009,NA,NA,NA,1.5,0,3
27608,"fixed","deadline",26,4,NA,NA,NA,1967,NA,NA,NA,4.5,3,6
27608,"fixed","deadline",27,4,NA,NA,NA,1433,NA,NA,NA,4.5,3,6
27608,"fixed","deadline",28,4,NA,NA,NA,2705,NA,NA,NA,4.5,3,6
27608,"fixed","deadline",29,4,NA,NA,NA,737,NA,NA,NA,4.5,3,6
27640,"fixed","untimed",0,1,3,2,4,4261.98,2546.6,1078.49,3306.42,1,1,1
27640,"fixed","untimed",1,4,1,3,2,918.155,1921.395,2012.925,797.42,4,4,4
27640,"fixed","untimed",2,2,4,3,1,572.9,1905.17,1251.1,1047.34,4,4,4
27640,"fixed","untimed",3,2,4,3,1,1204.425,1599.1,1258.145,998.625,4,4,4
27640,"fixed","untimed",4,2,4,3,1,1005.38,817.845,794.29,796.515,4,4,4
27640,"fixed","untimed",5,2,4,3,1,715.865,676.045,964.77,713.65,4,4,4
27640,"fixed","untimed",6,2,4,3,1,510.655,738.385,1243.93,1172.57,4,4,4
27640,"fixed","untimed",7,4,2,3,1,808.56,952.035,670.475,623.59,5,5,5
27640,"fixed","untimed",8,2,3,1,4,801.405,746.11,551.335,840.565,2,2,2
27640,"fixed","untimed",9,2,4,1,3,865.01,1156.05,735.605,980.685,3,3,3
27640,"fixed","deadline",0,2,4,NA,NA,2818.835,568.445,NA,NA,3.5,3,4
27640,"fixed","deadline",1,4,1,2,NA,2203.465,1332.815,749.91,NA,3,3,3
27640,"fixed","deadline",2,2,3,NA,NA,731.03,879.255,NA,NA,2.5,2,3
27640,"fixed","deadline",3,3,2,4,NA,1090.805,1136.595,1607.985,NA,4,4,4
27640,"fixed","deadline",4,3,2,1,4,1033.955,586.42,572.5,3075.81,3,3,3
27640,"fixed","deadline",5,2,3,4,NA,1255.375,1328.385,878.035,NA,3,3,3
27640,"fixed","deadline",6,2,3,4,1,1774.42,602.985,715.805,633.53,3,3,3
27640,"fixed","deadline",7,2,3,4,1,846.56,641.865,1011.77,696.955,3,3,3
27640,"fixed","deadline",8,1,4,3,2,995.185,736.785,697.35,687.92,3,3,3
27640,"fixed","deadline",9,3,1,NA,NA,1882.52,1653.42,NA,NA,2.5,2,3
27640,"fixed","deadline",10,3,2,4,1,1329.745,523.135,723.26,566.585,4,4,4
27640,"fixed","deadline",11,2,1,4,NA,1027.39,1052,792.575,NA,2,2,2
27640,"fixed","deadline",12,2,4,1,3,839.085,721,696.53,1411.89,3,3,3
27640,"fixed","deadline",13,4,2,3,1,1264.62,630.655,610.06,523.13,5,5,5
27640,"fixed","deadline",14,2,3,4,1,756.395,906.76,785.42,1715.245,3,3,3
27640,"fixed","deadline",15,4,3,2,NA,787.98,996.42,623.94,NA,6,6,6
27640,"fixed","deadline",16,4,3,2,NA,896.265,1024.09,601.765,NA,6,6,6
27640,"fixed","deadline",17,4,2,3,NA,737.07,867.01,664.965,NA,5,5,5
27640,"fixed","deadline",18,4,3,NA,NA,1336.98,1052.115,NA,NA,5.5,5,6
27640,"fixed","deadline",19,2,4,1,NA,872.75,995.87,892.675,NA,3,3,3
27640,"fixed","deadline",20,2,4,3,1,744.915,712.125,1031.495,712.43,4,4,4
27640,"fixed","deadline",21,4,2,3,NA,881.56,1046.4,874.81,NA,5,5,5
27640,"fixed","deadline",22,1,4,2,3,578.165,941.94,681.83,929.55,2,2,2
27640,"fixed","deadline",23,2,4,1,3,897.42,1462.425,894.86,1317.34,3,3,3
27640,"fixed","deadline",24,2,1,4,NA,729.23,1944.68,793.995,NA,2,2,2
27640,"fixed","deadline",25,2,4,1,3,520.61,738.66,762.3,1054.64,3,3,3
27640,"fixed","deadline",26,2,3,4,1,771.315,674.83,699.13,624.09,3,3,3
27640,"fixed","deadline",27,2,4,1,3,1226.325,606.61,614.165,638.155,3,3,3
27640,"fixed","deadline",28,2,4,3,1,747.43,600.19,1278.825,1022.765,4,4,4
27640,"fixed","deadline",29,4,2,NA,NA,1238.05,895.425,NA,NA,4.5,4,5
27664,"fixed","untimed",0,3,1,2,NA,5070.195,7328.4,2325.195,NA,2,2,2
27664,"fixed","untimed",1,3,1,2,4,1311.545,1086.44,748.4,674.73,2,2,2
27664,"fixed","untimed",2,3,1,2,4,693.29,656.41,492.68,591.19,2,2,2
27664,"fixed","untimed",3,3,1,2,4,646.455,650.7,400.795,514.34,2,2,2
27664,"fixed","untimed",4,3,2,1,4,811.045,656.335,548.995,472.03,3,3,3
27664,"fixed","untimed",5,3,2,1,4,795.39,786.395,569.17,556.275,3,3,3
27664,"fixed","untimed",6,3,2,1,4,605.555,518.465,429.315,451.685,3,3,3
27664,"fixed","untimed",7,3,1,2,4,553.98,893.055,423.745,593.16,2,2,2
27664,"fixed","untimed",8,3,1,2,4,586.94,487.315,512.68,493.015,2,2,2
27664,"fixed","untimed",9,3,2,1,4,787.455,572.5,531.105,409.365,3,3,3
27664,"fixed","deadline",0,3,1,2,4,672.845,554.885,497.36,496.365,2,2,2
27664,"fixed","deadline",1,3,1,2,4,445.565,448.145,304.835,1635.105,2,2,2
27664,"fixed","deadline",2,3,1,2,4,375.02,477.78,383.9,513.1,2,2,2
27664,"fixed","deadline",3,3,1,2,4,574.5,554.15,483.37,853.695,2,2,2
27664,"fixed","deadline",4,3,1,2,4,376.035,471.68,864.895,837.775,2,2,2
27664,"fixed","deadline",5,3,1,2,4,407.425,538.455,612.42,547.505,2,2,2
27664,"fixed","deadline",6,3,1,2,4,407.685,479.92,389.355,448.45,2,2,2
27664,"fixed","deadline",7,3,1,2,4,540.635,473.335,410.755,415.065,2,2,2
27664,"fixed","deadline",8,3,1,2,4,678.845,306.755,344.95,494.355,2,2,2
27664,"fixed","deadline",9,3,1,2,4,386.4,261.485,321.625,505.025,2,2,2
27664,"fixed","deadline",10,3,1,2,4,479.87,368.945,352.415,350.805,2,2,2
27664,"fixed","deadline",11,3,1,2,4,399.265,403.97,353.595,427.33,2,2,2
27664,"fixed","deadline",12,3,1,2,4,402.705,384.565,318.525,393.815,2,2,2
27664,"fixed","deadline",13,3,1,NA,NA,5017.695,791.705,NA,NA,2.5,2,3
27664,"fixed","deadline",14,3,1,2,4,637.08,464.295,443.92,416.55,2,2,2
27664,"fixed","deadline",15,3,1,2,4,398.075,406.46,394.825,379.47,2,2,2
27664,"fixed","deadline",16,3,1,2,4,342.06,329.535,286.285,373.225,2,2,2
27664,"fixed","deadline",17,3,1,2,4,326.115,329.715,294.51,397.54,2,2,2
27664,"fixed","deadline",18,3,1,2,4,327.475,339.52,321.375,376.3,2,2,2
27664,"fixed","deadline",19,3,1,2,4,435.065,272.55,303.895,322.385,2,2,2
27664,"fixed","deadline",20,3,1,2,4,381.26,264.545,252.065,279.685,2,2,2
27664,"fixed","deadline",21,3,1,2,4,295.6,213.49,253.365,293.985,2,2,2
27664,"fixed","deadline",22,3,1,2,4,310.975,228.73,383.885,320.51,2,2,2
27664,"fixed","deadline",23,3,1,2,4,423.41,286.325,351.965,278.46,2,2,2
27664,"fixed","deadline",24,3,1,2,4,349.97,236.94,360.02,399.485,2,2,2
27664,"fixed","deadline",25,3,1,2,4,321.53,268.98,293.86,379.65,2,2,2
27664,"fixed","deadline",26,3,1,2,4,325.23,266.02,336.815,403.58,2,2,2
27664,"fixed","deadline",27,3,1,2,4,1518.37,320.55,266.365,274.65,2,2,2
27664,"fixed","deadline",28,3,1,2,4,460.665,241.505,303.275,307.145,2,2,2
27664,"fixed","deadline",29,3,1,2,4,280.965,233.845,284.165,289.93,2,2,2
27680,"fixed","untimed",0,1,3,2,4,1938.835,3854.935,1833.405,1802.14,1,1,1
27680,"fixed","untimed",1,1,2,3,4,1217.605,1144.57,2452.655,1139.72,0,0,0
27680,"fixed","untimed",2,3,1,4,2,5233.39,1173.965,1745.805,1113.135,3,3,3
27680,"fixed","untimed",3,2,1,4,3,1585.825,879.75,1162.965,2186.56,2,2,2
27680,"fixed","untimed",4,1,2,4,3,2755.575,1448.79,1331.185,3222.755,1,1,1
27680,"fixed","untimed",5,2,1,4,3,1662.795,1664.935,2042.87,1247.17,2,2,2
27680,"fixed","untimed",6,3,4,1,2,2046.21,1616.875,1298.48,1483.535,4,4,4
27680,"fixed","untimed",7,NA,NA,NA,NA,NA,NA,NA,NA,3,0,6
27680,"fixed","untimed",8,2,1,3,4,4299.06,727.37,1398.01,1100.685,1,1,1
27680,"fixed","untimed",9,1,4,3,NA,1626.72,1235.64,1375.995,NA,3,3,3
27680,"fixed","deadline",0,4,3,NA,NA,993.645,919.59,NA,NA,5.5,5,6
27680,"fixed","deadline",1,2,1,4,3,1007.295,541.23,818.19,583.64,2,2,2
27680,"fixed","deadline",2,4,3,NA,NA,1061.35,847.495,NA,NA,5.5,5,6
27680,"fixed","deadline",3,1,2,4,NA,948.07,848.54,853.135,NA,1,1,1
27680,"fixed","deadline",4,3,1,2,NA,484.84,1409.985,1094.51,NA,2,2,2
27680,"fixed","deadline",5,4,3,NA,NA,852.38,857.805,NA,NA,5.5,5,6
27680,"fixed","deadline",6,1,2,4,NA,1085.11,699.615,611.025,NA,1,1,1
27680,"fixed","deadline",7,3,1,2,4,779.565,519.425,541.425,851.12,2,2,2
27680,"fixed","deadline",8,3,1,2,4,674.64,628.31,635.695,520.39,2,2,2
27680,"fixed","deadline",9,4,3,1,2,491.455,716.895,709.86,670.23,5,5,5
27680,"fixed","deadline",10,4,3,1,2,473.89,584.785,478.02,606.285,5,5,5
27680,"fixed","deadline",11,4,3,1,2,486.06,591.81,529.805,459.91,5,5,5
27680,"fixed","deadline",12,1,2,NA,NA,875.715,703.625,NA,NA,0.5,0,1
27680,"fixed","deadline",13,4,3,1,2,565.92,710.395,596.71,416.305,5,5,5
27680,"fixed","deadline",14,3,1,2,4,430.17,569.32,540.23,632.545,2,2,2
27680,"fixed","deadline",15,3,1,2,4,357.025,1015.405,725.765,454.545,2,2,2
27680,"fixed","deadline",16,3,1,2,4,470.16,476.435,449.825,419.15,2,2,2
27680,"fixed","deadline",17,3,1,2,4,585.14,606.39,498.635,520.545,2,2,2
27680,"fixed","deadline",18,3,4,1,NA,551.48,785.22,782.065,NA,4,4,4
27680,"fixed","deadline",19,1,2,4,3,496.99,436.385,424.955,543.3,1,1,1
27680,"fixed","deadline",20,3,1,2,4,413.12,799.38,458.415,423.345,2,2,2
27680,"fixed","deadline",21,3,1,2,4,458.635,405.1,495.71,396.33,2,2,2
27680,"fixed","deadline",22,4,3,1,2,703.945,512.245,572.185,483.87,5,5,5
27680,"fixed","deadline",23,4,3,1,NA,450.59,653.56,1084.71,NA,5,5,5
27680,"fixed","deadline",24,4,NA,NA,NA,499.32,NA,NA,NA,4.5,3,6
27680,"fixed","deadline",25,3,1,2,4,789.34,531.46,438.005,505.465,2,2,2
27680,"fixed","deadline",26,4,3,1,2,412.86,927.555,580.38,589.19,5,5,5
27680,"fixed","deadline",27,2,1,3,4,510.36,498.86,495.295,813.06,1,1,1
27680,"fixed","deadline",28,4,3,NA,NA,571.145,512.115,NA,NA,5.5,5,6
27680,"fixed","deadline",29,3,1,2,4,555.95,422.235,480.59,470.48,2,2,2
27684,"fixed","untimed",0,1,2,3,4,6187.525,5827.96,4922.955,1621.785,0,0,0
27684,"fixed","untimed",1,1,3,2,4,1241.52,1896.355,1417.475,2140.825,1,1,1
27684,"fixed","untimed",2,1,2,4,3,1569.435,1506.66,1966.95,1789.395,1,1,1
27684,"fixed","untimed",3,1,2,3,4,1092.605,1597.275,2881.835,3998.795,0,0,0
27684,"fixed","untimed",4,1,2,4,3,1467.04,1139.01,1416.45,1081.555,1,1,1
27684,"fixed","untimed",5,1,2,3,4,1305.215,1673.985,1156.015,832.715,0,0,0
27684,"fixed","untimed",6,1,2,3,4,1031.51,1274.47,1080.665,888.83,0,0,0
27684,"fixed","untimed",7,1,4,3,2,959.68,858.565,835.38,594.2,3,3,3
27684,"fixed","untimed",8,1,4,3,2,817.04,573.165,803.355,576.81,3,3,3
27684,"fixed","untimed",9,1,2,3,4,569.325,581.19,323.455,353.175,0,0,0
27684,"fixed","deadline",0,1,2,3,4,964.09,632.12,761.61,586.955,0,0,0
27684,"fixed","deadline",1,1,2,3,4,549.895,581.49,720.765,661.41,0,0,0
27684,"fixed","deadline",2,1,2,3,4,729.25,814.19,601.825,764.22,0,0,0
27684,"fixed","deadline",3,1,4,3,2,686.29,643.18,496.605,283.65,3,3,3
27684,"fixed","deadline",4,1,2,3,4,620.675,458.09,499.04,637.42,0,0,0
27684,"fixed","deadline",5,1,2,3,4,691.02,297.795,507.645,505.92,0,0,0
27684,"fixed","deadline",6,1,4,3,2,684.13,531.605,429.365,507.955,3,3,3
27684,"fixed","deadline",7,1,2,3,4,639.04,400.75,484.305,470.6,0,0,0
27684,"fixed","deadline",8,1,2,3,4,480.78,787.665,570.875,760.705,0,0,0
27684,"fixed","deadline",9,1,4,3,2,557.465,632.845,554.51,668.54,3,3,3
27684,"fixed","deadline",10,1,4,3,2,633.28,890.015,1047.235,758.015,3,3,3
27684,"fixed","deadline",11,1,2,3,4,529.265,836.055,695.75,539.675,0,0,0
27684,"fixed","deadline",12,1,2,3,4,1068.975,585.45,614.525,448.1,0,0,0
27684,"fixed","deadline",13,1,2,3,4,417.54,592.095,456.105,557.985,0,0,0
27684,"fixed","deadline",14,1,2,3,4,437.15,238.655,314.49,488.105,0,0,0
27684,"fixed","deadline",15,1,2,3,4,467.66,490.36,448.92,596.705,0,0,0
27684,"fixed","deadline",16,1,4,3,2,543.44,486.94,553.01,816.67,3,3,3
27684,"fixed","deadline",17,1,2,3,NA,2877.925,867.1,661.615,NA,0,0,0
27684,"fixed","deadline",18,1,2,3,4,621.81,542.745,712.375,709.49,0,0,0
27684,"fixed","deadline",19,1,2,3,4,510.435,477.54,477.39,457.735,0,0,0
27684,"fixed","deadline",20,1,2,3,4,496.98,690.04,592.25,569.865,0,0,0
27684,"fixed","deadline",21,1,2,3,4,539.34,513.945,414.535,460.05,0,0,0
27684,"fixed","deadline",22,1,2,3,4,563.825,509.89,460.13,508.75,0,0,0
27684,"fixed","deadline",23,1,2,3,4,744.445,761.035,769.395,622.195,0,0,0
27684,"fixed","deadline",24,1,2,3,4,407.465,457.515,314.475,402.525,0,0,0
27684,"fixed","deadline",25,1,2,3,4,350.46,475.585,454.965,614.695,0,0,0
27684,"fixed","deadline",26,1,2,3,4,531.425,1081.69,476.13,545.82,0,0,0
27684,"fixed","deadline",27,1,2,3,4,447.405,409.1,335.9,402.355,0,0,0
27684,"fixed","deadline",28,1,2,3,4,526.515,445.13,377.035,442.76,0,0,0
27684,"fixed","deadline",29,1,2,3,4,333.23,262.83,343.365,393.35,0,0,0
27695,"fixed","untimed",0,2,4,NA,NA,1916,1761,NA,NA,3.5,3,4
27695,"fixed","untimed",1,3,1,2,4,1237,1269,1701,916,2,2,2
27695,"fixed","untimed",2,3,2,1,4,862,1336,1667,2811,3,3,3
27695,"fixed","untimed",3,2,4,3,1,1331,1576,1723,1231,4,4,4
27695,"fixed","untimed",4,4,2,3,1,1155,983,815,724,5,5,5
27695,"fixed","untimed",5,4,2,3,1,934,1351,886,839,5,5,5
27695,"fixed","untimed",6,3,2,4,1,1084,937,1023,1260,4,4,4
27695,"fixed","untimed",7,2,3,4,1,1877,970,1156,1193,3,3,3
27695,"fixed","untimed",8,4,2,3,1,929,970,1333,1207,5,5,5
27695,"fixed","untimed",9,4,2,3,1,935,1453,1039,1092,5,5,5
27695,"fixed","deadline",0,2,4,1,NA,1202,709,1274,NA,3,3,3
27695,"fixed","deadline",1,3,2,4,NA,1167,1022,895,NA,4,4,4
